"","Participant","RT","Condition","Picture","Response_Trial","Flanker_RT_cost","Simon_RT_cost","CCPT","CTET","OSpan","SymSpan","RotSpan","SSRT"
"1","10",924,"sem.unr","90","correct",57.66017115,22.68571429,0.958333333333333,0.702380952380952,0.979166666667,0.7833333333335,0.9270833333335,187.604887286896
"2","10",1472,"sem.rel","90","correct",57.66017115,22.68571429,0.958333333333333,0.702380952380952,0.979166666667,0.7833333333335,0.9270833333335,187.604887286896
"3","10",961,"phono.unr","90","correct",57.66017115,22.68571429,0.958333333333333,0.702380952380952,0.979166666667,0.7833333333335,0.9270833333335,187.604887286896
"4","10",1628,"phono.rel","90","correct",57.66017115,22.68571429,0.958333333333333,0.702380952380952,0.979166666667,0.7833333333335,0.9270833333335,187.604887286896
"5","10",713,"baseline","90","correct",57.66017115,22.68571429,0.958333333333333,0.702380952380952,0.979166666667,0.7833333333335,0.9270833333335,187.604887286896
"6","10",1088,"phono.unr","65","correct",57.66017115,22.68571429,0.958333333333333,0.702380952380952,0.979166666667,0.7833333333335,0.9270833333335,187.604887286896
"7","10",1094,"sem.rel","65","correct",57.66017115,22.68571429,0.958333333333333,0.702380952380952,0.979166666667,0.7833333333335,0.9270833333335,187.604887286896
"8","10",1089,"sem.unr","65","correct",57.66017115,22.68571429,0.958333333333333,0.702380952380952,0.979166666667,0.7833333333335,0.9270833333335,187.604887286896
"9","10",725,"baseline","65","correct",57.66017115,22.68571429,0.958333333333333,0.702380952380952,0.979166666667,0.7833333333335,0.9270833333335,187.604887286896
"10","10",712,"phono.rel","65","correct",57.66017115,22.68571429,0.958333333333333,0.702380952380952,0.979166666667,0.7833333333335,0.9270833333335,187.604887286896
"11","10",NA,"phono.rel","58","no_resp",57.66017115,22.68571429,0.958333333333333,0.702380952380952,0.979166666667,0.7833333333335,0.9270833333335,187.604887286896
"12","10",1264,"phono.unr","58","correct",57.66017115,22.68571429,0.958333333333333,0.702380952380952,0.979166666667,0.7833333333335,0.9270833333335,187.604887286896
"13","10",977,"sem.rel","58","correct",57.66017115,22.68571429,0.958333333333333,0.702380952380952,0.979166666667,0.7833333333335,0.9270833333335,187.604887286896
"14","10",960,"sem.unr","58","correct",57.66017115,22.68571429,0.958333333333333,0.702380952380952,0.979166666667,0.7833333333335,0.9270833333335,187.604887286896
"15","10",792,"baseline","58","correct",57.66017115,22.68571429,0.958333333333333,0.702380952380952,0.979166666667,0.7833333333335,0.9270833333335,187.604887286896
"16","10",808,"sem.rel","67","correct",57.66017115,22.68571429,0.958333333333333,0.702380952380952,0.979166666667,0.7833333333335,0.9270833333335,187.604887286896
"17","10",843,"sem.unr","67","correct",57.66017115,22.68571429,0.958333333333333,0.702380952380952,0.979166666667,0.7833333333335,0.9270833333335,187.604887286896
"18","10",780,"baseline","67","correct",57.66017115,22.68571429,0.958333333333333,0.702380952380952,0.979166666667,0.7833333333335,0.9270833333335,187.604887286896
"19","10",738,"phono.rel","67","correct",57.66017115,22.68571429,0.958333333333333,0.702380952380952,0.979166666667,0.7833333333335,0.9270833333335,187.604887286896
"20","10",795,"phono.unr","67","correct",57.66017115,22.68571429,0.958333333333333,0.702380952380952,0.979166666667,0.7833333333335,0.9270833333335,187.604887286896
"21","10",819,"baseline","62","correct",57.66017115,22.68571429,0.958333333333333,0.702380952380952,0.979166666667,0.7833333333335,0.9270833333335,187.604887286896
"22","10",693,"phono.rel","62","correct",57.66017115,22.68571429,0.958333333333333,0.702380952380952,0.979166666667,0.7833333333335,0.9270833333335,187.604887286896
"23","10",1125,"phono.unr","62","correct",57.66017115,22.68571429,0.958333333333333,0.702380952380952,0.979166666667,0.7833333333335,0.9270833333335,187.604887286896
"24","10",NA,"sem.rel","62","disfluency",57.66017115,22.68571429,0.958333333333333,0.702380952380952,0.979166666667,0.7833333333335,0.9270833333335,187.604887286896
"25","10",927,"sem.unr","62","correct",57.66017115,22.68571429,0.958333333333333,0.702380952380952,0.979166666667,0.7833333333335,0.9270833333335,187.604887286896
"26","10",914,"sem.unr","39","correct",57.66017115,22.68571429,0.958333333333333,0.702380952380952,0.979166666667,0.7833333333335,0.9270833333335,187.604887286896
"27","10",756,"baseline","39","correct",57.66017115,22.68571429,0.958333333333333,0.702380952380952,0.979166666667,0.7833333333335,0.9270833333335,187.604887286896
"28","10",1756,"phono.rel","39","correct",57.66017115,22.68571429,0.958333333333333,0.702380952380952,0.979166666667,0.7833333333335,0.9270833333335,187.604887286896
"29","10",963,"phono.unr","39","correct",57.66017115,22.68571429,0.958333333333333,0.702380952380952,0.979166666667,0.7833333333335,0.9270833333335,187.604887286896
"30","10",1090,"sem.rel","39","correct",57.66017115,22.68571429,0.958333333333333,0.702380952380952,0.979166666667,0.7833333333335,0.9270833333335,187.604887286896
"31","10",614,"baseline","13","correct",57.66017115,22.68571429,0.958333333333333,0.702380952380952,0.979166666667,0.7833333333335,0.9270833333335,187.604887286896
"32","10",666,"phono.rel","13","correct",57.66017115,22.68571429,0.958333333333333,0.702380952380952,0.979166666667,0.7833333333335,0.9270833333335,187.604887286896
"33","10",615,"phono.unr","13","correct",57.66017115,22.68571429,0.958333333333333,0.702380952380952,0.979166666667,0.7833333333335,0.9270833333335,187.604887286896
"34","10",881,"sem.rel","13","correct",57.66017115,22.68571429,0.958333333333333,0.702380952380952,0.979166666667,0.7833333333335,0.9270833333335,187.604887286896
"35","10",812,"sem.unr","13","correct",57.66017115,22.68571429,0.958333333333333,0.702380952380952,0.979166666667,0.7833333333335,0.9270833333335,187.604887286896
"36","10",714,"baseline","79","correct",57.66017115,22.68571429,0.958333333333333,0.702380952380952,0.979166666667,0.7833333333335,0.9270833333335,187.604887286896
"37","10",739,"phono.rel","79","correct",57.66017115,22.68571429,0.958333333333333,0.702380952380952,0.979166666667,0.7833333333335,0.9270833333335,187.604887286896
"38","10",636,"phono.unr","79","correct",57.66017115,22.68571429,0.958333333333333,0.702380952380952,0.979166666667,0.7833333333335,0.9270833333335,187.604887286896
"39","10",666,"sem.rel","79","correct",57.66017115,22.68571429,0.958333333333333,0.702380952380952,0.979166666667,0.7833333333335,0.9270833333335,187.604887286896
"40","10",854,"sem.unr","79","correct",57.66017115,22.68571429,0.958333333333333,0.702380952380952,0.979166666667,0.7833333333335,0.9270833333335,187.604887286896
"41","10",950,"sem.rel","41","correct",57.66017115,22.68571429,0.958333333333333,0.702380952380952,0.979166666667,0.7833333333335,0.9270833333335,187.604887286896
"42","10",835,"phono.unr","41","correct",57.66017115,22.68571429,0.958333333333333,0.702380952380952,0.979166666667,0.7833333333335,0.9270833333335,187.604887286896
"43","10",804,"phono.rel","41","correct",57.66017115,22.68571429,0.958333333333333,0.702380952380952,0.979166666667,0.7833333333335,0.9270833333335,187.604887286896
"44","10",793,"baseline","41","correct",57.66017115,22.68571429,0.958333333333333,0.702380952380952,0.979166666667,0.7833333333335,0.9270833333335,187.604887286896
"45","10",806,"sem.unr","41","correct",57.66017115,22.68571429,0.958333333333333,0.702380952380952,0.979166666667,0.7833333333335,0.9270833333335,187.604887286896
"46","10",748,"phono.rel","36","correct",57.66017115,22.68571429,0.958333333333333,0.702380952380952,0.979166666667,0.7833333333335,0.9270833333335,187.604887286896
"47","10",844,"baseline","36","correct",57.66017115,22.68571429,0.958333333333333,0.702380952380952,0.979166666667,0.7833333333335,0.9270833333335,187.604887286896
"48","10",776,"sem.unr","36","correct",57.66017115,22.68571429,0.958333333333333,0.702380952380952,0.979166666667,0.7833333333335,0.9270833333335,187.604887286896
"49","10",800,"sem.rel","36","correct",57.66017115,22.68571429,0.958333333333333,0.702380952380952,0.979166666667,0.7833333333335,0.9270833333335,187.604887286896
"50","10",821,"phono.unr","36","correct",57.66017115,22.68571429,0.958333333333333,0.702380952380952,0.979166666667,0.7833333333335,0.9270833333335,187.604887286896
"51","10",785,"sem.unr","49","correct",57.66017115,22.68571429,0.958333333333333,0.702380952380952,0.979166666667,0.7833333333335,0.9270833333335,187.604887286896
"52","10",1167,"sem.rel","49","correct",57.66017115,22.68571429,0.958333333333333,0.702380952380952,0.979166666667,0.7833333333335,0.9270833333335,187.604887286896
"53","10",923,"phono.unr","49","correct",57.66017115,22.68571429,0.958333333333333,0.702380952380952,0.979166666667,0.7833333333335,0.9270833333335,187.604887286896
"54","10",875,"phono.rel","49","correct",57.66017115,22.68571429,0.958333333333333,0.702380952380952,0.979166666667,0.7833333333335,0.9270833333335,187.604887286896
"55","10",1658,"baseline","49","correct",57.66017115,22.68571429,0.958333333333333,0.702380952380952,0.979166666667,0.7833333333335,0.9270833333335,187.604887286896
"56","10",1462,"sem.unr","87","correct",57.66017115,22.68571429,0.958333333333333,0.702380952380952,0.979166666667,0.7833333333335,0.9270833333335,187.604887286896
"57","10",747,"baseline","87","correct",57.66017115,22.68571429,0.958333333333333,0.702380952380952,0.979166666667,0.7833333333335,0.9270833333335,187.604887286896
"58","10",689,"phono.rel","87","correct",57.66017115,22.68571429,0.958333333333333,0.702380952380952,0.979166666667,0.7833333333335,0.9270833333335,187.604887286896
"59","10",1055,"phono.unr","87","correct",57.66017115,22.68571429,0.958333333333333,0.702380952380952,0.979166666667,0.7833333333335,0.9270833333335,187.604887286896
"60","10",733,"sem.rel","87","correct",57.66017115,22.68571429,0.958333333333333,0.702380952380952,0.979166666667,0.7833333333335,0.9270833333335,187.604887286896
"61","10",807,"phono.unr","57","correct",57.66017115,22.68571429,0.958333333333333,0.702380952380952,0.979166666667,0.7833333333335,0.9270833333335,187.604887286896
"62","10",856,"sem.rel","57","correct",57.66017115,22.68571429,0.958333333333333,0.702380952380952,0.979166666667,0.7833333333335,0.9270833333335,187.604887286896
"63","10",740,"sem.unr","57","correct",57.66017115,22.68571429,0.958333333333333,0.702380952380952,0.979166666667,0.7833333333335,0.9270833333335,187.604887286896
"64","10",759,"baseline","57","correct",57.66017115,22.68571429,0.958333333333333,0.702380952380952,0.979166666667,0.7833333333335,0.9270833333335,187.604887286896
"65","10",750,"phono.rel","57","correct",57.66017115,22.68571429,0.958333333333333,0.702380952380952,0.979166666667,0.7833333333335,0.9270833333335,187.604887286896
"66","10",946,"sem.rel","69","correct",57.66017115,22.68571429,0.958333333333333,0.702380952380952,0.979166666667,0.7833333333335,0.9270833333335,187.604887286896
"67","10",843,"phono.unr","69","correct",57.66017115,22.68571429,0.958333333333333,0.702380952380952,0.979166666667,0.7833333333335,0.9270833333335,187.604887286896
"68","10",630,"phono.rel","69","correct",57.66017115,22.68571429,0.958333333333333,0.702380952380952,0.979166666667,0.7833333333335,0.9270833333335,187.604887286896
"69","10",722,"baseline","69","correct",57.66017115,22.68571429,0.958333333333333,0.702380952380952,0.979166666667,0.7833333333335,0.9270833333335,187.604887286896
"70","10",1048,"sem.unr","69","correct",57.66017115,22.68571429,0.958333333333333,0.702380952380952,0.979166666667,0.7833333333335,0.9270833333335,187.604887286896
"71","10",NA,"phono.rel","10","wrong_word",57.66017115,22.68571429,0.958333333333333,0.702380952380952,0.979166666667,0.7833333333335,0.9270833333335,187.604887286896
"72","10",NA,"baseline","10","wrong_word",57.66017115,22.68571429,0.958333333333333,0.702380952380952,0.979166666667,0.7833333333335,0.9270833333335,187.604887286896
"73","10",NA,"sem.unr","10","wrong_word",57.66017115,22.68571429,0.958333333333333,0.702380952380952,0.979166666667,0.7833333333335,0.9270833333335,187.604887286896
"74","10",NA,"sem.rel","10","wrong_word",57.66017115,22.68571429,0.958333333333333,0.702380952380952,0.979166666667,0.7833333333335,0.9270833333335,187.604887286896
"75","10",NA,"phono.unr","10","wrong_word",57.66017115,22.68571429,0.958333333333333,0.702380952380952,0.979166666667,0.7833333333335,0.9270833333335,187.604887286896
"76","10",1047,"sem.rel","8","correct",57.66017115,22.68571429,0.958333333333333,0.702380952380952,0.979166666667,0.7833333333335,0.9270833333335,187.604887286896
"77","10",1046,"phono.unr","8","correct",57.66017115,22.68571429,0.958333333333333,0.702380952380952,0.979166666667,0.7833333333335,0.9270833333335,187.604887286896
"78","10",758,"phono.rel","8","correct",57.66017115,22.68571429,0.958333333333333,0.702380952380952,0.979166666667,0.7833333333335,0.9270833333335,187.604887286896
"79","10",866,"baseline","8","correct",57.66017115,22.68571429,0.958333333333333,0.702380952380952,0.979166666667,0.7833333333335,0.9270833333335,187.604887286896
"80","10",1318,"sem.unr","8","correct",57.66017115,22.68571429,0.958333333333333,0.702380952380952,0.979166666667,0.7833333333335,0.9270833333335,187.604887286896
"81","10",955,"phono.rel","32","correct",57.66017115,22.68571429,0.958333333333333,0.702380952380952,0.979166666667,0.7833333333335,0.9270833333335,187.604887286896
"82","10",754,"baseline","32","correct",57.66017115,22.68571429,0.958333333333333,0.702380952380952,0.979166666667,0.7833333333335,0.9270833333335,187.604887286896
"83","10",NA,"sem.unr","32","no_resp",57.66017115,22.68571429,0.958333333333333,0.702380952380952,0.979166666667,0.7833333333335,0.9270833333335,187.604887286896
"84","10",1271,"sem.rel","32","correct",57.66017115,22.68571429,0.958333333333333,0.702380952380952,0.979166666667,0.7833333333335,0.9270833333335,187.604887286896
"85","10",1112,"phono.unr","32","correct",57.66017115,22.68571429,0.958333333333333,0.702380952380952,0.979166666667,0.7833333333335,0.9270833333335,187.604887286896
"86","10",NA,"sem.rel","42","wrong_word",57.66017115,22.68571429,0.958333333333333,0.702380952380952,0.979166666667,0.7833333333335,0.9270833333335,187.604887286896
"87","10",1267,"phono.unr","42","correct",57.66017115,22.68571429,0.958333333333333,0.702380952380952,0.979166666667,0.7833333333335,0.9270833333335,187.604887286896
"88","10",1487,"phono.rel","42","correct",57.66017115,22.68571429,0.958333333333333,0.702380952380952,0.979166666667,0.7833333333335,0.9270833333335,187.604887286896
"89","10",809,"baseline","42","correct",57.66017115,22.68571429,0.958333333333333,0.702380952380952,0.979166666667,0.7833333333335,0.9270833333335,187.604887286896
"90","10",NA,"sem.unr","42","disfluency",57.66017115,22.68571429,0.958333333333333,0.702380952380952,0.979166666667,0.7833333333335,0.9270833333335,187.604887286896
"91","10",837,"baseline","14","correct",57.66017115,22.68571429,0.958333333333333,0.702380952380952,0.979166666667,0.7833333333335,0.9270833333335,187.604887286896
"92","10",930,"sem.unr","14","correct",57.66017115,22.68571429,0.958333333333333,0.702380952380952,0.979166666667,0.7833333333335,0.9270833333335,187.604887286896
"93","10",905,"sem.rel","14","correct",57.66017115,22.68571429,0.958333333333333,0.702380952380952,0.979166666667,0.7833333333335,0.9270833333335,187.604887286896
"94","10",907,"phono.unr","14","correct",57.66017115,22.68571429,0.958333333333333,0.702380952380952,0.979166666667,0.7833333333335,0.9270833333335,187.604887286896
"95","10",835,"phono.rel","14","correct",57.66017115,22.68571429,0.958333333333333,0.702380952380952,0.979166666667,0.7833333333335,0.9270833333335,187.604887286896
"96","10",884,"sem.unr","46","correct",57.66017115,22.68571429,0.958333333333333,0.702380952380952,0.979166666667,0.7833333333335,0.9270833333335,187.604887286896
"97","10",713,"baseline","46","correct",57.66017115,22.68571429,0.958333333333333,0.702380952380952,0.979166666667,0.7833333333335,0.9270833333335,187.604887286896
"98","10",1006,"phono.rel","46","correct",57.66017115,22.68571429,0.958333333333333,0.702380952380952,0.979166666667,0.7833333333335,0.9270833333335,187.604887286896
"99","10",993,"phono.unr","46","correct",57.66017115,22.68571429,0.958333333333333,0.702380952380952,0.979166666667,0.7833333333335,0.9270833333335,187.604887286896
"100","10",1041,"sem.rel","46","correct",57.66017115,22.68571429,0.958333333333333,0.702380952380952,0.979166666667,0.7833333333335,0.9270833333335,187.604887286896
"101","10",NA,"sem.rel","24","wrong_word",57.66017115,22.68571429,0.958333333333333,0.702380952380952,0.979166666667,0.7833333333335,0.9270833333335,187.604887286896
"102","10",854,"phono.unr","24","correct",57.66017115,22.68571429,0.958333333333333,0.702380952380952,0.979166666667,0.7833333333335,0.9270833333335,187.604887286896
"103","10",787,"phono.rel","24","correct",57.66017115,22.68571429,0.958333333333333,0.702380952380952,0.979166666667,0.7833333333335,0.9270833333335,187.604887286896
"104","10",729,"baseline","24","correct",57.66017115,22.68571429,0.958333333333333,0.702380952380952,0.979166666667,0.7833333333335,0.9270833333335,187.604887286896
"105","10",931,"sem.unr","24","correct",57.66017115,22.68571429,0.958333333333333,0.702380952380952,0.979166666667,0.7833333333335,0.9270833333335,187.604887286896
"106","10",1035,"sem.unr","31","correct",57.66017115,22.68571429,0.958333333333333,0.702380952380952,0.979166666667,0.7833333333335,0.9270833333335,187.604887286896
"107","10",1030,"sem.rel","31","correct",57.66017115,22.68571429,0.958333333333333,0.702380952380952,0.979166666667,0.7833333333335,0.9270833333335,187.604887286896
"108","10",1029,"phono.unr","31","correct",57.66017115,22.68571429,0.958333333333333,0.702380952380952,0.979166666667,0.7833333333335,0.9270833333335,187.604887286896
"109","10",949,"phono.rel","31","correct",57.66017115,22.68571429,0.958333333333333,0.702380952380952,0.979166666667,0.7833333333335,0.9270833333335,187.604887286896
"110","10",NA,"baseline","31","no_resp",57.66017115,22.68571429,0.958333333333333,0.702380952380952,0.979166666667,0.7833333333335,0.9270833333335,187.604887286896
"111","10",913,"phono.unr","1","correct",57.66017115,22.68571429,0.958333333333333,0.702380952380952,0.979166666667,0.7833333333335,0.9270833333335,187.604887286896
"112","10",1222,"sem.rel","1","correct",57.66017115,22.68571429,0.958333333333333,0.702380952380952,0.979166666667,0.7833333333335,0.9270833333335,187.604887286896
"113","10",1006,"sem.unr","1","correct",57.66017115,22.68571429,0.958333333333333,0.702380952380952,0.979166666667,0.7833333333335,0.9270833333335,187.604887286896
"114","10",823,"baseline","1","correct",57.66017115,22.68571429,0.958333333333333,0.702380952380952,0.979166666667,0.7833333333335,0.9270833333335,187.604887286896
"115","10",744,"phono.rel","1","correct",57.66017115,22.68571429,0.958333333333333,0.702380952380952,0.979166666667,0.7833333333335,0.9270833333335,187.604887286896
"116","10",917,"phono.rel","9","correct",57.66017115,22.68571429,0.958333333333333,0.702380952380952,0.979166666667,0.7833333333335,0.9270833333335,187.604887286896
"117","10",1111,"phono.unr","9","correct",57.66017115,22.68571429,0.958333333333333,0.702380952380952,0.979166666667,0.7833333333335,0.9270833333335,187.604887286896
"118","10",833,"sem.rel","9","correct",57.66017115,22.68571429,0.958333333333333,0.702380952380952,0.979166666667,0.7833333333335,0.9270833333335,187.604887286896
"119","10",925,"sem.unr","9","correct",57.66017115,22.68571429,0.958333333333333,0.702380952380952,0.979166666667,0.7833333333335,0.9270833333335,187.604887286896
"120","10",730,"baseline","9","correct",57.66017115,22.68571429,0.958333333333333,0.702380952380952,0.979166666667,0.7833333333335,0.9270833333335,187.604887286896
"121","10",1210,"sem.rel","88","correct",57.66017115,22.68571429,0.958333333333333,0.702380952380952,0.979166666667,0.7833333333335,0.9270833333335,187.604887286896
"122","10",2221,"phono.unr","88","correct",57.66017115,22.68571429,0.958333333333333,0.702380952380952,0.979166666667,0.7833333333335,0.9270833333335,187.604887286896
"123","10",1464,"phono.rel","88","correct",57.66017115,22.68571429,0.958333333333333,0.702380952380952,0.979166666667,0.7833333333335,0.9270833333335,187.604887286896
"124","10",NA,"baseline","88","no_resp",57.66017115,22.68571429,0.958333333333333,0.702380952380952,0.979166666667,0.7833333333335,0.9270833333335,187.604887286896
"125","10",1812,"sem.unr","88","correct",57.66017115,22.68571429,0.958333333333333,0.702380952380952,0.979166666667,0.7833333333335,0.9270833333335,187.604887286896
"126","10",808,"phono.unr","48","correct",57.66017115,22.68571429,0.958333333333333,0.702380952380952,0.979166666667,0.7833333333335,0.9270833333335,187.604887286896
"127","10",854,"phono.rel","48","correct",57.66017115,22.68571429,0.958333333333333,0.702380952380952,0.979166666667,0.7833333333335,0.9270833333335,187.604887286896
"128","10",656,"baseline","48","correct",57.66017115,22.68571429,0.958333333333333,0.702380952380952,0.979166666667,0.7833333333335,0.9270833333335,187.604887286896
"129","10",1626,"sem.unr","48","correct",57.66017115,22.68571429,0.958333333333333,0.702380952380952,0.979166666667,0.7833333333335,0.9270833333335,187.604887286896
"130","10",875,"sem.rel","48","correct",57.66017115,22.68571429,0.958333333333333,0.702380952380952,0.979166666667,0.7833333333335,0.9270833333335,187.604887286896
"131","10",1184,"phono.rel","77","correct",57.66017115,22.68571429,0.958333333333333,0.702380952380952,0.979166666667,0.7833333333335,0.9270833333335,187.604887286896
"132","10",770,"phono.unr","77","correct",57.66017115,22.68571429,0.958333333333333,0.702380952380952,0.979166666667,0.7833333333335,0.9270833333335,187.604887286896
"133","10",1240,"sem.rel","77","correct",57.66017115,22.68571429,0.958333333333333,0.702380952380952,0.979166666667,0.7833333333335,0.9270833333335,187.604887286896
"134","10",1018,"sem.unr","77","correct",57.66017115,22.68571429,0.958333333333333,0.702380952380952,0.979166666667,0.7833333333335,0.9270833333335,187.604887286896
"135","10",792,"baseline","77","correct",57.66017115,22.68571429,0.958333333333333,0.702380952380952,0.979166666667,0.7833333333335,0.9270833333335,187.604887286896
"136","10",914,"phono.rel","59","correct",57.66017115,22.68571429,0.958333333333333,0.702380952380952,0.979166666667,0.7833333333335,0.9270833333335,187.604887286896
"137","10",696,"baseline","59","correct",57.66017115,22.68571429,0.958333333333333,0.702380952380952,0.979166666667,0.7833333333335,0.9270833333335,187.604887286896
"138","10",709,"sem.unr","59","correct",57.66017115,22.68571429,0.958333333333333,0.702380952380952,0.979166666667,0.7833333333335,0.9270833333335,187.604887286896
"139","10",813,"sem.rel","59","correct",57.66017115,22.68571429,0.958333333333333,0.702380952380952,0.979166666667,0.7833333333335,0.9270833333335,187.604887286896
"140","10",842,"phono.unr","59","correct",57.66017115,22.68571429,0.958333333333333,0.702380952380952,0.979166666667,0.7833333333335,0.9270833333335,187.604887286896
"141","10",811,"baseline","66","correct",57.66017115,22.68571429,0.958333333333333,0.702380952380952,0.979166666667,0.7833333333335,0.9270833333335,187.604887286896
"142","10",1088,"sem.unr","66","correct",57.66017115,22.68571429,0.958333333333333,0.702380952380952,0.979166666667,0.7833333333335,0.9270833333335,187.604887286896
"143","10",1267,"sem.rel","66","correct",57.66017115,22.68571429,0.958333333333333,0.702380952380952,0.979166666667,0.7833333333335,0.9270833333335,187.604887286896
"144","10",972,"phono.unr","66","correct",57.66017115,22.68571429,0.958333333333333,0.702380952380952,0.979166666667,0.7833333333335,0.9270833333335,187.604887286896
"145","10",2685,"phono.rel","66","correct",57.66017115,22.68571429,0.958333333333333,0.702380952380952,0.979166666667,0.7833333333335,0.9270833333335,187.604887286896
"146","10",772,"baseline","72","correct",57.66017115,22.68571429,0.958333333333333,0.702380952380952,0.979166666667,0.7833333333335,0.9270833333335,187.604887286896
"147","10",664,"phono.rel","72","correct",57.66017115,22.68571429,0.958333333333333,0.702380952380952,0.979166666667,0.7833333333335,0.9270833333335,187.604887286896
"148","10",1262,"phono.unr","72","correct",57.66017115,22.68571429,0.958333333333333,0.702380952380952,0.979166666667,0.7833333333335,0.9270833333335,187.604887286896
"149","10",1027,"sem.rel","72","correct",57.66017115,22.68571429,0.958333333333333,0.702380952380952,0.979166666667,0.7833333333335,0.9270833333335,187.604887286896
"150","10",841,"sem.unr","72","correct",57.66017115,22.68571429,0.958333333333333,0.702380952380952,0.979166666667,0.7833333333335,0.9270833333335,187.604887286896
"151","10",643,"baseline","86","correct",57.66017115,22.68571429,0.958333333333333,0.702380952380952,0.979166666667,0.7833333333335,0.9270833333335,187.604887286896
"152","10",910,"sem.unr","86","correct",57.66017115,22.68571429,0.958333333333333,0.702380952380952,0.979166666667,0.7833333333335,0.9270833333335,187.604887286896
"153","10",910,"sem.rel","86","correct",57.66017115,22.68571429,0.958333333333333,0.702380952380952,0.979166666667,0.7833333333335,0.9270833333335,187.604887286896
"154","10",796,"phono.unr","86","correct",57.66017115,22.68571429,0.958333333333333,0.702380952380952,0.979166666667,0.7833333333335,0.9270833333335,187.604887286896
"155","10",1123,"phono.rel","86","correct",57.66017115,22.68571429,0.958333333333333,0.702380952380952,0.979166666667,0.7833333333335,0.9270833333335,187.604887286896
"156","10",NA,"sem.unr","22","wrong_word",57.66017115,22.68571429,0.958333333333333,0.702380952380952,0.979166666667,0.7833333333335,0.9270833333335,187.604887286896
"157","10",765,"baseline","22","correct",57.66017115,22.68571429,0.958333333333333,0.702380952380952,0.979166666667,0.7833333333335,0.9270833333335,187.604887286896
"158","10",NA,"phono.rel","22","wrong_word",57.66017115,22.68571429,0.958333333333333,0.702380952380952,0.979166666667,0.7833333333335,0.9270833333335,187.604887286896
"159","10",NA,"phono.unr","22","wrong_word",57.66017115,22.68571429,0.958333333333333,0.702380952380952,0.979166666667,0.7833333333335,0.9270833333335,187.604887286896
"160","10",NA,"sem.rel","22","no_resp",57.66017115,22.68571429,0.958333333333333,0.702380952380952,0.979166666667,0.7833333333335,0.9270833333335,187.604887286896
"161","10",1218,"phono.unr","52","correct",57.66017115,22.68571429,0.958333333333333,0.702380952380952,0.979166666667,0.7833333333335,0.9270833333335,187.604887286896
"162","10",753,"sem.rel","52","correct",57.66017115,22.68571429,0.958333333333333,0.702380952380952,0.979166666667,0.7833333333335,0.9270833333335,187.604887286896
"163","10",678,"sem.unr","52","correct",57.66017115,22.68571429,0.958333333333333,0.702380952380952,0.979166666667,0.7833333333335,0.9270833333335,187.604887286896
"164","10",642,"baseline","52","correct",57.66017115,22.68571429,0.958333333333333,0.702380952380952,0.979166666667,0.7833333333335,0.9270833333335,187.604887286896
"165","10",765,"phono.rel","52","correct",57.66017115,22.68571429,0.958333333333333,0.702380952380952,0.979166666667,0.7833333333335,0.9270833333335,187.604887286896
"166","10",1061,"sem.unr","54","correct",57.66017115,22.68571429,0.958333333333333,0.702380952380952,0.979166666667,0.7833333333335,0.9270833333335,187.604887286896
"167","10",767,"baseline","54","correct",57.66017115,22.68571429,0.958333333333333,0.702380952380952,0.979166666667,0.7833333333335,0.9270833333335,187.604887286896
"168","10",918,"phono.rel","54","correct",57.66017115,22.68571429,0.958333333333333,0.702380952380952,0.979166666667,0.7833333333335,0.9270833333335,187.604887286896
"169","10",1123,"phono.unr","54","correct",57.66017115,22.68571429,0.958333333333333,0.702380952380952,0.979166666667,0.7833333333335,0.9270833333335,187.604887286896
"170","10",1055,"sem.rel","54","correct",57.66017115,22.68571429,0.958333333333333,0.702380952380952,0.979166666667,0.7833333333335,0.9270833333335,187.604887286896
"171","10",691,"sem.rel","74","correct",57.66017115,22.68571429,0.958333333333333,0.702380952380952,0.979166666667,0.7833333333335,0.9270833333335,187.604887286896
"172","10",667,"sem.unr","74","correct",57.66017115,22.68571429,0.958333333333333,0.702380952380952,0.979166666667,0.7833333333335,0.9270833333335,187.604887286896
"173","10",646,"baseline","74","correct",57.66017115,22.68571429,0.958333333333333,0.702380952380952,0.979166666667,0.7833333333335,0.9270833333335,187.604887286896
"174","10",650,"phono.rel","74","correct",57.66017115,22.68571429,0.958333333333333,0.702380952380952,0.979166666667,0.7833333333335,0.9270833333335,187.604887286896
"175","10",719,"phono.unr","74","correct",57.66017115,22.68571429,0.958333333333333,0.702380952380952,0.979166666667,0.7833333333335,0.9270833333335,187.604887286896
"176","10",966,"phono.unr","33","correct",57.66017115,22.68571429,0.958333333333333,0.702380952380952,0.979166666667,0.7833333333335,0.9270833333335,187.604887286896
"177","10",733,"phono.rel","33","correct",57.66017115,22.68571429,0.958333333333333,0.702380952380952,0.979166666667,0.7833333333335,0.9270833333335,187.604887286896
"178","10",795,"baseline","33","correct",57.66017115,22.68571429,0.958333333333333,0.702380952380952,0.979166666667,0.7833333333335,0.9270833333335,187.604887286896
"179","10",689,"sem.unr","33","correct",57.66017115,22.68571429,0.958333333333333,0.702380952380952,0.979166666667,0.7833333333335,0.9270833333335,187.604887286896
"180","10",798,"sem.rel","33","correct",57.66017115,22.68571429,0.958333333333333,0.702380952380952,0.979166666667,0.7833333333335,0.9270833333335,187.604887286896
"181","10",946,"phono.unr","78","correct",57.66017115,22.68571429,0.958333333333333,0.702380952380952,0.979166666667,0.7833333333335,0.9270833333335,187.604887286896
"182","10",794,"phono.rel","78","correct",57.66017115,22.68571429,0.958333333333333,0.702380952380952,0.979166666667,0.7833333333335,0.9270833333335,187.604887286896
"183","10",911,"baseline","78","correct",57.66017115,22.68571429,0.958333333333333,0.702380952380952,0.979166666667,0.7833333333335,0.9270833333335,187.604887286896
"184","10",795,"sem.unr","78","correct",57.66017115,22.68571429,0.958333333333333,0.702380952380952,0.979166666667,0.7833333333335,0.9270833333335,187.604887286896
"185","10",1197,"sem.rel","78","correct",57.66017115,22.68571429,0.958333333333333,0.702380952380952,0.979166666667,0.7833333333335,0.9270833333335,187.604887286896
"186","10",768,"phono.rel","40","correct",57.66017115,22.68571429,0.958333333333333,0.702380952380952,0.979166666667,0.7833333333335,0.9270833333335,187.604887286896
"187","10",678,"baseline","40","correct",57.66017115,22.68571429,0.958333333333333,0.702380952380952,0.979166666667,0.7833333333335,0.9270833333335,187.604887286896
"188","10",684,"sem.unr","40","correct",57.66017115,22.68571429,0.958333333333333,0.702380952380952,0.979166666667,0.7833333333335,0.9270833333335,187.604887286896
"189","10",790,"sem.rel","40","correct",57.66017115,22.68571429,0.958333333333333,0.702380952380952,0.979166666667,0.7833333333335,0.9270833333335,187.604887286896
"190","10",801,"phono.unr","40","correct",57.66017115,22.68571429,0.958333333333333,0.702380952380952,0.979166666667,0.7833333333335,0.9270833333335,187.604887286896
"191","10",1006,"sem.unr","18","correct",57.66017115,22.68571429,0.958333333333333,0.702380952380952,0.979166666667,0.7833333333335,0.9270833333335,187.604887286896
"192","10",822,"baseline","18","correct",57.66017115,22.68571429,0.958333333333333,0.702380952380952,0.979166666667,0.7833333333335,0.9270833333335,187.604887286896
"193","10",797,"phono.rel","18","correct",57.66017115,22.68571429,0.958333333333333,0.702380952380952,0.979166666667,0.7833333333335,0.9270833333335,187.604887286896
"194","10",1084,"phono.unr","18","correct",57.66017115,22.68571429,0.958333333333333,0.702380952380952,0.979166666667,0.7833333333335,0.9270833333335,187.604887286896
"195","10",1957,"sem.rel","18","correct",57.66017115,22.68571429,0.958333333333333,0.702380952380952,0.979166666667,0.7833333333335,0.9270833333335,187.604887286896
"196","10",785,"baseline","80","correct",57.66017115,22.68571429,0.958333333333333,0.702380952380952,0.979166666667,0.7833333333335,0.9270833333335,187.604887286896
"197","10",625,"phono.rel","80","correct",57.66017115,22.68571429,0.958333333333333,0.702380952380952,0.979166666667,0.7833333333335,0.9270833333335,187.604887286896
"198","10",826,"phono.unr","80","correct",57.66017115,22.68571429,0.958333333333333,0.702380952380952,0.979166666667,0.7833333333335,0.9270833333335,187.604887286896
"199","10",1020,"sem.rel","80","correct",57.66017115,22.68571429,0.958333333333333,0.702380952380952,0.979166666667,0.7833333333335,0.9270833333335,187.604887286896
"200","10",758,"sem.unr","80","correct",57.66017115,22.68571429,0.958333333333333,0.702380952380952,0.979166666667,0.7833333333335,0.9270833333335,187.604887286896
"201","10",NA,"phono.unr","64","wrong_word",57.66017115,22.68571429,0.958333333333333,0.702380952380952,0.979166666667,0.7833333333335,0.9270833333335,187.604887286896
"202","10",1429,"phono.rel","64","correct",57.66017115,22.68571429,0.958333333333333,0.702380952380952,0.979166666667,0.7833333333335,0.9270833333335,187.604887286896
"203","10",792,"baseline","64","correct",57.66017115,22.68571429,0.958333333333333,0.702380952380952,0.979166666667,0.7833333333335,0.9270833333335,187.604887286896
"204","10",1216,"sem.unr","64","correct",57.66017115,22.68571429,0.958333333333333,0.702380952380952,0.979166666667,0.7833333333335,0.9270833333335,187.604887286896
"205","10",1021,"sem.rel","64","correct",57.66017115,22.68571429,0.958333333333333,0.702380952380952,0.979166666667,0.7833333333335,0.9270833333335,187.604887286896
"206","10",NA,"sem.rel","30","wrong_word",57.66017115,22.68571429,0.958333333333333,0.702380952380952,0.979166666667,0.7833333333335,0.9270833333335,187.604887286896
"207","10",NA,"sem.unr","30","wrong_word",57.66017115,22.68571429,0.958333333333333,0.702380952380952,0.979166666667,0.7833333333335,0.9270833333335,187.604887286896
"208","10",NA,"baseline","30","wrong_word",57.66017115,22.68571429,0.958333333333333,0.702380952380952,0.979166666667,0.7833333333335,0.9270833333335,187.604887286896
"209","10",NA,"phono.rel","30","wrong_word",57.66017115,22.68571429,0.958333333333333,0.702380952380952,0.979166666667,0.7833333333335,0.9270833333335,187.604887286896
"210","10",NA,"phono.unr","30","wrong_word",57.66017115,22.68571429,0.958333333333333,0.702380952380952,0.979166666667,0.7833333333335,0.9270833333335,187.604887286896
"211","10",NA,"sem.rel","43","wrong_word",57.66017115,22.68571429,0.958333333333333,0.702380952380952,0.979166666667,0.7833333333335,0.9270833333335,187.604887286896
"212","10",NA,"sem.unr","43","wrong_word",57.66017115,22.68571429,0.958333333333333,0.702380952380952,0.979166666667,0.7833333333335,0.9270833333335,187.604887286896
"213","10",NA,"baseline","43","wrong_word",57.66017115,22.68571429,0.958333333333333,0.702380952380952,0.979166666667,0.7833333333335,0.9270833333335,187.604887286896
"214","10",NA,"phono.rel","43","wrong_word",57.66017115,22.68571429,0.958333333333333,0.702380952380952,0.979166666667,0.7833333333335,0.9270833333335,187.604887286896
"215","10",815,"phono.unr","43","correct",57.66017115,22.68571429,0.958333333333333,0.702380952380952,0.979166666667,0.7833333333335,0.9270833333335,187.604887286896
"216","10",863,"sem.rel","12","correct",57.66017115,22.68571429,0.958333333333333,0.702380952380952,0.979166666667,0.7833333333335,0.9270833333335,187.604887286896
"217","10",969,"phono.unr","12","correct",57.66017115,22.68571429,0.958333333333333,0.702380952380952,0.979166666667,0.7833333333335,0.9270833333335,187.604887286896
"218","10",848,"phono.rel","12","correct",57.66017115,22.68571429,0.958333333333333,0.702380952380952,0.979166666667,0.7833333333335,0.9270833333335,187.604887286896
"219","10",1015,"baseline","12","correct",57.66017115,22.68571429,0.958333333333333,0.702380952380952,0.979166666667,0.7833333333335,0.9270833333335,187.604887286896
"220","10",1052,"sem.unr","12","correct",57.66017115,22.68571429,0.958333333333333,0.702380952380952,0.979166666667,0.7833333333335,0.9270833333335,187.604887286896
"221","10",928,"phono.unr","89","correct",57.66017115,22.68571429,0.958333333333333,0.702380952380952,0.979166666667,0.7833333333335,0.9270833333335,187.604887286896
"222","10",718,"phono.rel","89","correct",57.66017115,22.68571429,0.958333333333333,0.702380952380952,0.979166666667,0.7833333333335,0.9270833333335,187.604887286896
"223","10",700,"baseline","89","correct",57.66017115,22.68571429,0.958333333333333,0.702380952380952,0.979166666667,0.7833333333335,0.9270833333335,187.604887286896
"224","10",955,"sem.unr","89","correct",57.66017115,22.68571429,0.958333333333333,0.702380952380952,0.979166666667,0.7833333333335,0.9270833333335,187.604887286896
"225","10",NA,"sem.rel","89","no_resp",57.66017115,22.68571429,0.958333333333333,0.702380952380952,0.979166666667,0.7833333333335,0.9270833333335,187.604887286896
"226","10",759,"phono.rel","19","correct",57.66017115,22.68571429,0.958333333333333,0.702380952380952,0.979166666667,0.7833333333335,0.9270833333335,187.604887286896
"227","10",680,"baseline","19","correct",57.66017115,22.68571429,0.958333333333333,0.702380952380952,0.979166666667,0.7833333333335,0.9270833333335,187.604887286896
"228","10",807,"sem.unr","19","correct",57.66017115,22.68571429,0.958333333333333,0.702380952380952,0.979166666667,0.7833333333335,0.9270833333335,187.604887286896
"229","10",760,"sem.rel","19","correct",57.66017115,22.68571429,0.958333333333333,0.702380952380952,0.979166666667,0.7833333333335,0.9270833333335,187.604887286896
"230","10",994,"phono.unr","19","correct",57.66017115,22.68571429,0.958333333333333,0.702380952380952,0.979166666667,0.7833333333335,0.9270833333335,187.604887286896
"231","10",912,"phono.rel","7","correct",57.66017115,22.68571429,0.958333333333333,0.702380952380952,0.979166666667,0.7833333333335,0.9270833333335,187.604887286896
"232","10",1110,"phono.unr","7","correct",57.66017115,22.68571429,0.958333333333333,0.702380952380952,0.979166666667,0.7833333333335,0.9270833333335,187.604887286896
"233","10",944,"sem.rel","7","correct",57.66017115,22.68571429,0.958333333333333,0.702380952380952,0.979166666667,0.7833333333335,0.9270833333335,187.604887286896
"234","10",970,"sem.unr","7","correct",57.66017115,22.68571429,0.958333333333333,0.702380952380952,0.979166666667,0.7833333333335,0.9270833333335,187.604887286896
"235","10",672,"baseline","7","correct",57.66017115,22.68571429,0.958333333333333,0.702380952380952,0.979166666667,0.7833333333335,0.9270833333335,187.604887286896
"236","10",782,"sem.rel","2","correct",57.66017115,22.68571429,0.958333333333333,0.702380952380952,0.979166666667,0.7833333333335,0.9270833333335,187.604887286896
"237","10",818,"phono.unr","2","correct",57.66017115,22.68571429,0.958333333333333,0.702380952380952,0.979166666667,0.7833333333335,0.9270833333335,187.604887286896
"238","10",837,"phono.rel","2","correct",57.66017115,22.68571429,0.958333333333333,0.702380952380952,0.979166666667,0.7833333333335,0.9270833333335,187.604887286896
"239","10",746,"baseline","2","correct",57.66017115,22.68571429,0.958333333333333,0.702380952380952,0.979166666667,0.7833333333335,0.9270833333335,187.604887286896
"240","10",818,"sem.unr","2","correct",57.66017115,22.68571429,0.958333333333333,0.702380952380952,0.979166666667,0.7833333333335,0.9270833333335,187.604887286896
"241","10",1007,"phono.unr","17","correct",57.66017115,22.68571429,0.958333333333333,0.702380952380952,0.979166666667,0.7833333333335,0.9270833333335,187.604887286896
"242","10",937,"phono.rel","17","correct",57.66017115,22.68571429,0.958333333333333,0.702380952380952,0.979166666667,0.7833333333335,0.9270833333335,187.604887286896
"243","10",799,"baseline","17","correct",57.66017115,22.68571429,0.958333333333333,0.702380952380952,0.979166666667,0.7833333333335,0.9270833333335,187.604887286896
"244","10",841,"sem.unr","17","correct",57.66017115,22.68571429,0.958333333333333,0.702380952380952,0.979166666667,0.7833333333335,0.9270833333335,187.604887286896
"245","10",1104,"sem.rel","17","correct",57.66017115,22.68571429,0.958333333333333,0.702380952380952,0.979166666667,0.7833333333335,0.9270833333335,187.604887286896
"246","10",1061,"sem.rel","25","correct",57.66017115,22.68571429,0.958333333333333,0.702380952380952,0.979166666667,0.7833333333335,0.9270833333335,187.604887286896
"247","10",801,"sem.unr","25","correct",57.66017115,22.68571429,0.958333333333333,0.702380952380952,0.979166666667,0.7833333333335,0.9270833333335,187.604887286896
"248","10",846,"baseline","25","correct",57.66017115,22.68571429,0.958333333333333,0.702380952380952,0.979166666667,0.7833333333335,0.9270833333335,187.604887286896
"249","10",873,"phono.rel","25","correct",57.66017115,22.68571429,0.958333333333333,0.702380952380952,0.979166666667,0.7833333333335,0.9270833333335,187.604887286896
"250","10",713,"phono.unr","25","correct",57.66017115,22.68571429,0.958333333333333,0.702380952380952,0.979166666667,0.7833333333335,0.9270833333335,187.604887286896
"251","10",NA,"phono.rel","45","disfluency",57.66017115,22.68571429,0.958333333333333,0.702380952380952,0.979166666667,0.7833333333335,0.9270833333335,187.604887286896
"252","10",1234,"phono.unr","45","correct",57.66017115,22.68571429,0.958333333333333,0.702380952380952,0.979166666667,0.7833333333335,0.9270833333335,187.604887286896
"253","10",1432,"sem.rel","45","correct",57.66017115,22.68571429,0.958333333333333,0.702380952380952,0.979166666667,0.7833333333335,0.9270833333335,187.604887286896
"254","10",1058,"sem.unr","45","correct",57.66017115,22.68571429,0.958333333333333,0.702380952380952,0.979166666667,0.7833333333335,0.9270833333335,187.604887286896
"255","10",975,"baseline","45","correct",57.66017115,22.68571429,0.958333333333333,0.702380952380952,0.979166666667,0.7833333333335,0.9270833333335,187.604887286896
"256","10",778,"baseline","63","correct",57.66017115,22.68571429,0.958333333333333,0.702380952380952,0.979166666667,0.7833333333335,0.9270833333335,187.604887286896
"257","10",762,"sem.unr","63","correct",57.66017115,22.68571429,0.958333333333333,0.702380952380952,0.979166666667,0.7833333333335,0.9270833333335,187.604887286896
"258","10",872,"sem.rel","63","correct",57.66017115,22.68571429,0.958333333333333,0.702380952380952,0.979166666667,0.7833333333335,0.9270833333335,187.604887286896
"259","10",876,"phono.unr","63","correct",57.66017115,22.68571429,0.958333333333333,0.702380952380952,0.979166666667,0.7833333333335,0.9270833333335,187.604887286896
"260","10",868,"phono.rel","63","correct",57.66017115,22.68571429,0.958333333333333,0.702380952380952,0.979166666667,0.7833333333335,0.9270833333335,187.604887286896
"261","10",960,"baseline","83","correct",57.66017115,22.68571429,0.958333333333333,0.702380952380952,0.979166666667,0.7833333333335,0.9270833333335,187.604887286896
"262","10",831,"sem.unr","83","correct",57.66017115,22.68571429,0.958333333333333,0.702380952380952,0.979166666667,0.7833333333335,0.9270833333335,187.604887286896
"263","10",1147,"sem.rel","83","correct",57.66017115,22.68571429,0.958333333333333,0.702380952380952,0.979166666667,0.7833333333335,0.9270833333335,187.604887286896
"264","10",869,"phono.unr","83","correct",57.66017115,22.68571429,0.958333333333333,0.702380952380952,0.979166666667,0.7833333333335,0.9270833333335,187.604887286896
"265","10",770,"phono.rel","83","correct",57.66017115,22.68571429,0.958333333333333,0.702380952380952,0.979166666667,0.7833333333335,0.9270833333335,187.604887286896
"266","10",1024,"phono.unr","15","correct",57.66017115,22.68571429,0.958333333333333,0.702380952380952,0.979166666667,0.7833333333335,0.9270833333335,187.604887286896
"267","10",1280,"sem.rel","15","correct",57.66017115,22.68571429,0.958333333333333,0.702380952380952,0.979166666667,0.7833333333335,0.9270833333335,187.604887286896
"268","10",902,"sem.unr","15","correct",57.66017115,22.68571429,0.958333333333333,0.702380952380952,0.979166666667,0.7833333333335,0.9270833333335,187.604887286896
"269","10",NA,"baseline","15","no_resp",57.66017115,22.68571429,0.958333333333333,0.702380952380952,0.979166666667,0.7833333333335,0.9270833333335,187.604887286896
"270","10",1000,"phono.rel","15","correct",57.66017115,22.68571429,0.958333333333333,0.702380952380952,0.979166666667,0.7833333333335,0.9270833333335,187.604887286896
"271","10",847,"phono.rel","21","correct",57.66017115,22.68571429,0.958333333333333,0.702380952380952,0.979166666667,0.7833333333335,0.9270833333335,187.604887286896
"272","10",1098,"phono.unr","21","correct",57.66017115,22.68571429,0.958333333333333,0.702380952380952,0.979166666667,0.7833333333335,0.9270833333335,187.604887286896
"273","10",912,"sem.rel","21","correct",57.66017115,22.68571429,0.958333333333333,0.702380952380952,0.979166666667,0.7833333333335,0.9270833333335,187.604887286896
"274","10",926,"sem.unr","21","correct",57.66017115,22.68571429,0.958333333333333,0.702380952380952,0.979166666667,0.7833333333335,0.9270833333335,187.604887286896
"275","10",698,"baseline","21","correct",57.66017115,22.68571429,0.958333333333333,0.702380952380952,0.979166666667,0.7833333333335,0.9270833333335,187.604887286896
"276","10",882,"sem.unr","51","correct",57.66017115,22.68571429,0.958333333333333,0.702380952380952,0.979166666667,0.7833333333335,0.9270833333335,187.604887286896
"277","10",682,"sem.rel","51","correct",57.66017115,22.68571429,0.958333333333333,0.702380952380952,0.979166666667,0.7833333333335,0.9270833333335,187.604887286896
"278","10",1067,"phono.unr","51","correct",57.66017115,22.68571429,0.958333333333333,0.702380952380952,0.979166666667,0.7833333333335,0.9270833333335,187.604887286896
"279","10",659,"phono.rel","51","correct",57.66017115,22.68571429,0.958333333333333,0.702380952380952,0.979166666667,0.7833333333335,0.9270833333335,187.604887286896
"280","10",1580,"baseline","51","correct",57.66017115,22.68571429,0.958333333333333,0.702380952380952,0.979166666667,0.7833333333335,0.9270833333335,187.604887286896
"281","10",NA,"sem.rel","3","disfluency",57.66017115,22.68571429,0.958333333333333,0.702380952380952,0.979166666667,0.7833333333335,0.9270833333335,187.604887286896
"282","10",1657,"sem.unr","3","correct",57.66017115,22.68571429,0.958333333333333,0.702380952380952,0.979166666667,0.7833333333335,0.9270833333335,187.604887286896
"283","10",1042,"baseline","3","correct",57.66017115,22.68571429,0.958333333333333,0.702380952380952,0.979166666667,0.7833333333335,0.9270833333335,187.604887286896
"284","10",1435,"phono.rel","3","correct",57.66017115,22.68571429,0.958333333333333,0.702380952380952,0.979166666667,0.7833333333335,0.9270833333335,187.604887286896
"285","10",1272,"phono.unr","3","correct",57.66017115,22.68571429,0.958333333333333,0.702380952380952,0.979166666667,0.7833333333335,0.9270833333335,187.604887286896
"286","10",NA,"phono.unr","84","wrong_word",57.66017115,22.68571429,0.958333333333333,0.702380952380952,0.979166666667,0.7833333333335,0.9270833333335,187.604887286896
"287","10",850,"phono.rel","84","correct",57.66017115,22.68571429,0.958333333333333,0.702380952380952,0.979166666667,0.7833333333335,0.9270833333335,187.604887286896
"288","10",NA,"baseline","84","no_resp",57.66017115,22.68571429,0.958333333333333,0.702380952380952,0.979166666667,0.7833333333335,0.9270833333335,187.604887286896
"289","10",1265,"sem.unr","84","correct",57.66017115,22.68571429,0.958333333333333,0.702380952380952,0.979166666667,0.7833333333335,0.9270833333335,187.604887286896
"290","10",1110,"sem.rel","84","correct",57.66017115,22.68571429,0.958333333333333,0.702380952380952,0.979166666667,0.7833333333335,0.9270833333335,187.604887286896
"291","10",975,"phono.rel","75","correct",57.66017115,22.68571429,0.958333333333333,0.702380952380952,0.979166666667,0.7833333333335,0.9270833333335,187.604887286896
"292","10",1206,"phono.unr","75","correct",57.66017115,22.68571429,0.958333333333333,0.702380952380952,0.979166666667,0.7833333333335,0.9270833333335,187.604887286896
"293","10",989,"sem.rel","75","correct",57.66017115,22.68571429,0.958333333333333,0.702380952380952,0.979166666667,0.7833333333335,0.9270833333335,187.604887286896
"294","10",809,"sem.unr","75","correct",57.66017115,22.68571429,0.958333333333333,0.702380952380952,0.979166666667,0.7833333333335,0.9270833333335,187.604887286896
"295","10",836,"baseline","75","correct",57.66017115,22.68571429,0.958333333333333,0.702380952380952,0.979166666667,0.7833333333335,0.9270833333335,187.604887286896
"296","10",1113,"phono.unr","85","correct",57.66017115,22.68571429,0.958333333333333,0.702380952380952,0.979166666667,0.7833333333335,0.9270833333335,187.604887286896
"297","10",918,"sem.rel","85","correct",57.66017115,22.68571429,0.958333333333333,0.702380952380952,0.979166666667,0.7833333333335,0.9270833333335,187.604887286896
"298","10",874,"sem.unr","85","correct",57.66017115,22.68571429,0.958333333333333,0.702380952380952,0.979166666667,0.7833333333335,0.9270833333335,187.604887286896
"299","10",682,"baseline","85","correct",57.66017115,22.68571429,0.958333333333333,0.702380952380952,0.979166666667,0.7833333333335,0.9270833333335,187.604887286896
"300","10",1032,"phono.rel","85","correct",57.66017115,22.68571429,0.958333333333333,0.702380952380952,0.979166666667,0.7833333333335,0.9270833333335,187.604887286896
"301","10",NA,"sem.unr","5","disfluency",57.66017115,22.68571429,0.958333333333333,0.702380952380952,0.979166666667,0.7833333333335,0.9270833333335,187.604887286896
"302","10",1184,"sem.rel","5","correct",57.66017115,22.68571429,0.958333333333333,0.702380952380952,0.979166666667,0.7833333333335,0.9270833333335,187.604887286896
"303","10",1094,"phono.unr","5","correct",57.66017115,22.68571429,0.958333333333333,0.702380952380952,0.979166666667,0.7833333333335,0.9270833333335,187.604887286896
"304","10",875,"phono.rel","5","correct",57.66017115,22.68571429,0.958333333333333,0.702380952380952,0.979166666667,0.7833333333335,0.9270833333335,187.604887286896
"305","10",955,"baseline","5","correct",57.66017115,22.68571429,0.958333333333333,0.702380952380952,0.979166666667,0.7833333333335,0.9270833333335,187.604887286896
"306","10",945,"phono.unr","16","correct",57.66017115,22.68571429,0.958333333333333,0.702380952380952,0.979166666667,0.7833333333335,0.9270833333335,187.604887286896
"307","10",621,"phono.rel","16","correct",57.66017115,22.68571429,0.958333333333333,0.702380952380952,0.979166666667,0.7833333333335,0.9270833333335,187.604887286896
"308","10",842,"baseline","16","correct",57.66017115,22.68571429,0.958333333333333,0.702380952380952,0.979166666667,0.7833333333335,0.9270833333335,187.604887286896
"309","10",1006,"sem.unr","16","correct",57.66017115,22.68571429,0.958333333333333,0.702380952380952,0.979166666667,0.7833333333335,0.9270833333335,187.604887286896
"310","10",672,"sem.rel","16","correct",57.66017115,22.68571429,0.958333333333333,0.702380952380952,0.979166666667,0.7833333333335,0.9270833333335,187.604887286896
"311","10",1272,"baseline","23","correct",57.66017115,22.68571429,0.958333333333333,0.702380952380952,0.979166666667,0.7833333333335,0.9270833333335,187.604887286896
"312","10",909,"sem.unr","23","correct",57.66017115,22.68571429,0.958333333333333,0.702380952380952,0.979166666667,0.7833333333335,0.9270833333335,187.604887286896
"313","10",972,"sem.rel","23","correct",57.66017115,22.68571429,0.958333333333333,0.702380952380952,0.979166666667,0.7833333333335,0.9270833333335,187.604887286896
"314","10",949,"phono.unr","23","correct",57.66017115,22.68571429,0.958333333333333,0.702380952380952,0.979166666667,0.7833333333335,0.9270833333335,187.604887286896
"315","10",847,"phono.rel","23","correct",57.66017115,22.68571429,0.958333333333333,0.702380952380952,0.979166666667,0.7833333333335,0.9270833333335,187.604887286896
"316","10",1707,"phono.rel","82","correct",57.66017115,22.68571429,0.958333333333333,0.702380952380952,0.979166666667,0.7833333333335,0.9270833333335,187.604887286896
"317","10",985,"baseline","82","correct",57.66017115,22.68571429,0.958333333333333,0.702380952380952,0.979166666667,0.7833333333335,0.9270833333335,187.604887286896
"318","10",1171,"sem.unr","82","correct",57.66017115,22.68571429,0.958333333333333,0.702380952380952,0.979166666667,0.7833333333335,0.9270833333335,187.604887286896
"319","10",1453,"sem.rel","82","correct",57.66017115,22.68571429,0.958333333333333,0.702380952380952,0.979166666667,0.7833333333335,0.9270833333335,187.604887286896
"320","10",1844,"phono.unr","82","correct",57.66017115,22.68571429,0.958333333333333,0.702380952380952,0.979166666667,0.7833333333335,0.9270833333335,187.604887286896
"321","10",1018,"phono.unr","50","correct",57.66017115,22.68571429,0.958333333333333,0.702380952380952,0.979166666667,0.7833333333335,0.9270833333335,187.604887286896
"322","10",1098,"sem.rel","50","correct",57.66017115,22.68571429,0.958333333333333,0.702380952380952,0.979166666667,0.7833333333335,0.9270833333335,187.604887286896
"323","10",790,"sem.unr","50","correct",57.66017115,22.68571429,0.958333333333333,0.702380952380952,0.979166666667,0.7833333333335,0.9270833333335,187.604887286896
"324","10",688,"baseline","50","correct",57.66017115,22.68571429,0.958333333333333,0.702380952380952,0.979166666667,0.7833333333335,0.9270833333335,187.604887286896
"325","10",850,"phono.rel","50","correct",57.66017115,22.68571429,0.958333333333333,0.702380952380952,0.979166666667,0.7833333333335,0.9270833333335,187.604887286896
"326","10",915,"sem.unr","76","correct",57.66017115,22.68571429,0.958333333333333,0.702380952380952,0.979166666667,0.7833333333335,0.9270833333335,187.604887286896
"327","10",1363,"sem.rel","76","correct",57.66017115,22.68571429,0.958333333333333,0.702380952380952,0.979166666667,0.7833333333335,0.9270833333335,187.604887286896
"328","10",1179,"phono.unr","76","correct",57.66017115,22.68571429,0.958333333333333,0.702380952380952,0.979166666667,0.7833333333335,0.9270833333335,187.604887286896
"329","10",1170,"phono.rel","76","correct",57.66017115,22.68571429,0.958333333333333,0.702380952380952,0.979166666667,0.7833333333335,0.9270833333335,187.604887286896
"330","10",800,"baseline","76","correct",57.66017115,22.68571429,0.958333333333333,0.702380952380952,0.979166666667,0.7833333333335,0.9270833333335,187.604887286896
"331","10",NA,"sem.rel","35","disfluency",57.66017115,22.68571429,0.958333333333333,0.702380952380952,0.979166666667,0.7833333333335,0.9270833333335,187.604887286896
"332","10",975,"phono.unr","35","correct",57.66017115,22.68571429,0.958333333333333,0.702380952380952,0.979166666667,0.7833333333335,0.9270833333335,187.604887286896
"333","10",934,"phono.rel","35","correct",57.66017115,22.68571429,0.958333333333333,0.702380952380952,0.979166666667,0.7833333333335,0.9270833333335,187.604887286896
"334","10",585,"baseline","35","correct",57.66017115,22.68571429,0.958333333333333,0.702380952380952,0.979166666667,0.7833333333335,0.9270833333335,187.604887286896
"335","10",965,"sem.unr","35","correct",57.66017115,22.68571429,0.958333333333333,0.702380952380952,0.979166666667,0.7833333333335,0.9270833333335,187.604887286896
"336","10",821,"baseline","70","correct",57.66017115,22.68571429,0.958333333333333,0.702380952380952,0.979166666667,0.7833333333335,0.9270833333335,187.604887286896
"337","10",706,"sem.unr","70","correct",57.66017115,22.68571429,0.958333333333333,0.702380952380952,0.979166666667,0.7833333333335,0.9270833333335,187.604887286896
"338","10",868,"sem.rel","70","correct",57.66017115,22.68571429,0.958333333333333,0.702380952380952,0.979166666667,0.7833333333335,0.9270833333335,187.604887286896
"339","10",935,"phono.unr","70","correct",57.66017115,22.68571429,0.958333333333333,0.702380952380952,0.979166666667,0.7833333333335,0.9270833333335,187.604887286896
"340","10",768,"phono.rel","70","correct",57.66017115,22.68571429,0.958333333333333,0.702380952380952,0.979166666667,0.7833333333335,0.9270833333335,187.604887286896
"341","10",1472,"phono.unr","56","correct",57.66017115,22.68571429,0.958333333333333,0.702380952380952,0.979166666667,0.7833333333335,0.9270833333335,187.604887286896
"342","10",950,"sem.rel","56","correct",57.66017115,22.68571429,0.958333333333333,0.702380952380952,0.979166666667,0.7833333333335,0.9270833333335,187.604887286896
"343","10",1424,"sem.unr","56","correct",57.66017115,22.68571429,0.958333333333333,0.702380952380952,0.979166666667,0.7833333333335,0.9270833333335,187.604887286896
"344","10",661,"baseline","56","correct",57.66017115,22.68571429,0.958333333333333,0.702380952380952,0.979166666667,0.7833333333335,0.9270833333335,187.604887286896
"345","10",NA,"phono.rel","56","no_resp",57.66017115,22.68571429,0.958333333333333,0.702380952380952,0.979166666667,0.7833333333335,0.9270833333335,187.604887286896
"346","10",1177,"baseline","20","correct",57.66017115,22.68571429,0.958333333333333,0.702380952380952,0.979166666667,0.7833333333335,0.9270833333335,187.604887286896
"347","10",767,"phono.rel","20","correct",57.66017115,22.68571429,0.958333333333333,0.702380952380952,0.979166666667,0.7833333333335,0.9270833333335,187.604887286896
"348","10",820,"phono.unr","20","correct",57.66017115,22.68571429,0.958333333333333,0.702380952380952,0.979166666667,0.7833333333335,0.9270833333335,187.604887286896
"349","10",759,"sem.rel","20","correct",57.66017115,22.68571429,0.958333333333333,0.702380952380952,0.979166666667,0.7833333333335,0.9270833333335,187.604887286896
"350","10",754,"sem.unr","20","correct",57.66017115,22.68571429,0.958333333333333,0.702380952380952,0.979166666667,0.7833333333335,0.9270833333335,187.604887286896
"351","10",621,"baseline","26","correct",57.66017115,22.68571429,0.958333333333333,0.702380952380952,0.979166666667,0.7833333333335,0.9270833333335,187.604887286896
"352","10",625,"phono.rel","26","correct",57.66017115,22.68571429,0.958333333333333,0.702380952380952,0.979166666667,0.7833333333335,0.9270833333335,187.604887286896
"353","10",926,"phono.unr","26","correct",57.66017115,22.68571429,0.958333333333333,0.702380952380952,0.979166666667,0.7833333333335,0.9270833333335,187.604887286896
"354","10",835,"sem.rel","26","correct",57.66017115,22.68571429,0.958333333333333,0.702380952380952,0.979166666667,0.7833333333335,0.9270833333335,187.604887286896
"355","10",673,"sem.unr","26","correct",57.66017115,22.68571429,0.958333333333333,0.702380952380952,0.979166666667,0.7833333333335,0.9270833333335,187.604887286896
"356","10",846,"phono.rel","28","correct",57.66017115,22.68571429,0.958333333333333,0.702380952380952,0.979166666667,0.7833333333335,0.9270833333335,187.604887286896
"357","10",627,"baseline","28","correct",57.66017115,22.68571429,0.958333333333333,0.702380952380952,0.979166666667,0.7833333333335,0.9270833333335,187.604887286896
"358","10",890,"sem.unr","28","correct",57.66017115,22.68571429,0.958333333333333,0.702380952380952,0.979166666667,0.7833333333335,0.9270833333335,187.604887286896
"359","10",771,"sem.rel","28","correct",57.66017115,22.68571429,0.958333333333333,0.702380952380952,0.979166666667,0.7833333333335,0.9270833333335,187.604887286896
"360","10",742,"phono.unr","28","correct",57.66017115,22.68571429,0.958333333333333,0.702380952380952,0.979166666667,0.7833333333335,0.9270833333335,187.604887286896
"361","10",619,"baseline","68","correct",57.66017115,22.68571429,0.958333333333333,0.702380952380952,0.979166666667,0.7833333333335,0.9270833333335,187.604887286896
"362","10",879,"phono.rel","68","correct",57.66017115,22.68571429,0.958333333333333,0.702380952380952,0.979166666667,0.7833333333335,0.9270833333335,187.604887286896
"363","10",680,"phono.unr","68","correct",57.66017115,22.68571429,0.958333333333333,0.702380952380952,0.979166666667,0.7833333333335,0.9270833333335,187.604887286896
"364","10",1222,"sem.rel","68","correct",57.66017115,22.68571429,0.958333333333333,0.702380952380952,0.979166666667,0.7833333333335,0.9270833333335,187.604887286896
"365","10",735,"sem.unr","68","correct",57.66017115,22.68571429,0.958333333333333,0.702380952380952,0.979166666667,0.7833333333335,0.9270833333335,187.604887286896
"366","10",NA,"baseline","37","wrong_word",57.66017115,22.68571429,0.958333333333333,0.702380952380952,0.979166666667,0.7833333333335,0.9270833333335,187.604887286896
"367","10",NA,"phono.rel","37","wrong_word",57.66017115,22.68571429,0.958333333333333,0.702380952380952,0.979166666667,0.7833333333335,0.9270833333335,187.604887286896
"368","10",NA,"phono.unr","37","wrong_word",57.66017115,22.68571429,0.958333333333333,0.702380952380952,0.979166666667,0.7833333333335,0.9270833333335,187.604887286896
"369","10",NA,"sem.rel","37","wrong_word",57.66017115,22.68571429,0.958333333333333,0.702380952380952,0.979166666667,0.7833333333335,0.9270833333335,187.604887286896
"370","10",NA,"sem.unr","37","wrong_word",57.66017115,22.68571429,0.958333333333333,0.702380952380952,0.979166666667,0.7833333333335,0.9270833333335,187.604887286896
"371","10",1492,"sem.unr","38","correct",57.66017115,22.68571429,0.958333333333333,0.702380952380952,0.979166666667,0.7833333333335,0.9270833333335,187.604887286896
"372","10",921,"baseline","38","correct",57.66017115,22.68571429,0.958333333333333,0.702380952380952,0.979166666667,0.7833333333335,0.9270833333335,187.604887286896
"373","10",573,"phono.rel","38","correct",57.66017115,22.68571429,0.958333333333333,0.702380952380952,0.979166666667,0.7833333333335,0.9270833333335,187.604887286896
"374","10",1171,"phono.unr","38","correct",57.66017115,22.68571429,0.958333333333333,0.702380952380952,0.979166666667,0.7833333333335,0.9270833333335,187.604887286896
"375","10",874,"sem.rel","38","correct",57.66017115,22.68571429,0.958333333333333,0.702380952380952,0.979166666667,0.7833333333335,0.9270833333335,187.604887286896
"376","10",600,"baseline","53","correct",57.66017115,22.68571429,0.958333333333333,0.702380952380952,0.979166666667,0.7833333333335,0.9270833333335,187.604887286896
"377","10",733,"sem.unr","53","correct",57.66017115,22.68571429,0.958333333333333,0.702380952380952,0.979166666667,0.7833333333335,0.9270833333335,187.604887286896
"378","10",843,"sem.rel","53","correct",57.66017115,22.68571429,0.958333333333333,0.702380952380952,0.979166666667,0.7833333333335,0.9270833333335,187.604887286896
"379","10",630,"phono.unr","53","correct",57.66017115,22.68571429,0.958333333333333,0.702380952380952,0.979166666667,0.7833333333335,0.9270833333335,187.604887286896
"380","10",676,"phono.rel","53","correct",57.66017115,22.68571429,0.958333333333333,0.702380952380952,0.979166666667,0.7833333333335,0.9270833333335,187.604887286896
"381","10",789,"sem.rel","34","correct",57.66017115,22.68571429,0.958333333333333,0.702380952380952,0.979166666667,0.7833333333335,0.9270833333335,187.604887286896
"382","10",736,"sem.unr","34","correct",57.66017115,22.68571429,0.958333333333333,0.702380952380952,0.979166666667,0.7833333333335,0.9270833333335,187.604887286896
"383","10",791,"baseline","34","correct",57.66017115,22.68571429,0.958333333333333,0.702380952380952,0.979166666667,0.7833333333335,0.9270833333335,187.604887286896
"384","10",1224,"phono.rel","34","correct",57.66017115,22.68571429,0.958333333333333,0.702380952380952,0.979166666667,0.7833333333335,0.9270833333335,187.604887286896
"385","10",792,"phono.unr","34","correct",57.66017115,22.68571429,0.958333333333333,0.702380952380952,0.979166666667,0.7833333333335,0.9270833333335,187.604887286896
"386","10",806,"sem.unr","73","correct",57.66017115,22.68571429,0.958333333333333,0.702380952380952,0.979166666667,0.7833333333335,0.9270833333335,187.604887286896
"387","10",580,"baseline","73","correct",57.66017115,22.68571429,0.958333333333333,0.702380952380952,0.979166666667,0.7833333333335,0.9270833333335,187.604887286896
"388","10",1210,"phono.rel","73","correct",57.66017115,22.68571429,0.958333333333333,0.702380952380952,0.979166666667,0.7833333333335,0.9270833333335,187.604887286896
"389","10",1092,"phono.unr","73","correct",57.66017115,22.68571429,0.958333333333333,0.702380952380952,0.979166666667,0.7833333333335,0.9270833333335,187.604887286896
"390","10",1198,"sem.rel","73","correct",57.66017115,22.68571429,0.958333333333333,0.702380952380952,0.979166666667,0.7833333333335,0.9270833333335,187.604887286896
"391","10",711,"phono.rel","81","correct",57.66017115,22.68571429,0.958333333333333,0.702380952380952,0.979166666667,0.7833333333335,0.9270833333335,187.604887286896
"392","10",841,"phono.unr","81","correct",57.66017115,22.68571429,0.958333333333333,0.702380952380952,0.979166666667,0.7833333333335,0.9270833333335,187.604887286896
"393","10",895,"sem.rel","81","correct",57.66017115,22.68571429,0.958333333333333,0.702380952380952,0.979166666667,0.7833333333335,0.9270833333335,187.604887286896
"394","10",948,"sem.unr","81","correct",57.66017115,22.68571429,0.958333333333333,0.702380952380952,0.979166666667,0.7833333333335,0.9270833333335,187.604887286896
"395","10",722,"baseline","81","correct",57.66017115,22.68571429,0.958333333333333,0.702380952380952,0.979166666667,0.7833333333335,0.9270833333335,187.604887286896
"396","10",1000,"sem.unr","6","correct",57.66017115,22.68571429,0.958333333333333,0.702380952380952,0.979166666667,0.7833333333335,0.9270833333335,187.604887286896
"397","10",740,"sem.rel","6","correct",57.66017115,22.68571429,0.958333333333333,0.702380952380952,0.979166666667,0.7833333333335,0.9270833333335,187.604887286896
"398","10",648,"phono.unr","6","correct",57.66017115,22.68571429,0.958333333333333,0.702380952380952,0.979166666667,0.7833333333335,0.9270833333335,187.604887286896
"399","10",740,"phono.rel","6","correct",57.66017115,22.68571429,0.958333333333333,0.702380952380952,0.979166666667,0.7833333333335,0.9270833333335,187.604887286896
"400","10",674,"baseline","6","correct",57.66017115,22.68571429,0.958333333333333,0.702380952380952,0.979166666667,0.7833333333335,0.9270833333335,187.604887286896
"401","10",NA,"phono.rel","47","no_resp",57.66017115,22.68571429,0.958333333333333,0.702380952380952,0.979166666667,0.7833333333335,0.9270833333335,187.604887286896
"402","10",620,"baseline","47","correct",57.66017115,22.68571429,0.958333333333333,0.702380952380952,0.979166666667,0.7833333333335,0.9270833333335,187.604887286896
"403","10",732,"sem.unr","47","correct",57.66017115,22.68571429,0.958333333333333,0.702380952380952,0.979166666667,0.7833333333335,0.9270833333335,187.604887286896
"404","10",881,"sem.rel","47","correct",57.66017115,22.68571429,0.958333333333333,0.702380952380952,0.979166666667,0.7833333333335,0.9270833333335,187.604887286896
"405","10",934,"phono.unr","47","correct",57.66017115,22.68571429,0.958333333333333,0.702380952380952,0.979166666667,0.7833333333335,0.9270833333335,187.604887286896
"406","10",1012,"phono.rel","55","correct",57.66017115,22.68571429,0.958333333333333,0.702380952380952,0.979166666667,0.7833333333335,0.9270833333335,187.604887286896
"407","10",818,"phono.unr","55","correct",57.66017115,22.68571429,0.958333333333333,0.702380952380952,0.979166666667,0.7833333333335,0.9270833333335,187.604887286896
"408","10",1092,"sem.rel","55","correct",57.66017115,22.68571429,0.958333333333333,0.702380952380952,0.979166666667,0.7833333333335,0.9270833333335,187.604887286896
"409","10",NA,"sem.unr","55","disfluency",57.66017115,22.68571429,0.958333333333333,0.702380952380952,0.979166666667,0.7833333333335,0.9270833333335,187.604887286896
"410","10",1139,"baseline","55","correct",57.66017115,22.68571429,0.958333333333333,0.702380952380952,0.979166666667,0.7833333333335,0.9270833333335,187.604887286896
"411","10",891,"phono.unr","71","correct",57.66017115,22.68571429,0.958333333333333,0.702380952380952,0.979166666667,0.7833333333335,0.9270833333335,187.604887286896
"412","10",1035,"phono.rel","71","correct",57.66017115,22.68571429,0.958333333333333,0.702380952380952,0.979166666667,0.7833333333335,0.9270833333335,187.604887286896
"413","10",1265,"baseline","71","correct",57.66017115,22.68571429,0.958333333333333,0.702380952380952,0.979166666667,0.7833333333335,0.9270833333335,187.604887286896
"414","10",1327,"sem.unr","71","correct",57.66017115,22.68571429,0.958333333333333,0.702380952380952,0.979166666667,0.7833333333335,0.9270833333335,187.604887286896
"415","10",906,"sem.rel","71","correct",57.66017115,22.68571429,0.958333333333333,0.702380952380952,0.979166666667,0.7833333333335,0.9270833333335,187.604887286896
"416","10",1042,"sem.rel","61","correct",57.66017115,22.68571429,0.958333333333333,0.702380952380952,0.979166666667,0.7833333333335,0.9270833333335,187.604887286896
"417","10",909,"sem.unr","61","correct",57.66017115,22.68571429,0.958333333333333,0.702380952380952,0.979166666667,0.7833333333335,0.9270833333335,187.604887286896
"418","10",934,"baseline","61","correct",57.66017115,22.68571429,0.958333333333333,0.702380952380952,0.979166666667,0.7833333333335,0.9270833333335,187.604887286896
"419","10",823,"phono.rel","61","correct",57.66017115,22.68571429,0.958333333333333,0.702380952380952,0.979166666667,0.7833333333335,0.9270833333335,187.604887286896
"420","10",912,"phono.unr","61","correct",57.66017115,22.68571429,0.958333333333333,0.702380952380952,0.979166666667,0.7833333333335,0.9270833333335,187.604887286896
"421","10",982,"phono.unr","29","correct",57.66017115,22.68571429,0.958333333333333,0.702380952380952,0.979166666667,0.7833333333335,0.9270833333335,187.604887286896
"422","10",1415,"sem.rel","29","correct",57.66017115,22.68571429,0.958333333333333,0.702380952380952,0.979166666667,0.7833333333335,0.9270833333335,187.604887286896
"423","10",837,"sem.unr","29","correct",57.66017115,22.68571429,0.958333333333333,0.702380952380952,0.979166666667,0.7833333333335,0.9270833333335,187.604887286896
"424","10",683,"baseline","29","correct",57.66017115,22.68571429,0.958333333333333,0.702380952380952,0.979166666667,0.7833333333335,0.9270833333335,187.604887286896
"425","10",768,"phono.rel","29","correct",57.66017115,22.68571429,0.958333333333333,0.702380952380952,0.979166666667,0.7833333333335,0.9270833333335,187.604887286896
"426","10",891,"baseline","44","correct",57.66017115,22.68571429,0.958333333333333,0.702380952380952,0.979166666667,0.7833333333335,0.9270833333335,187.604887286896
"427","10",884,"sem.unr","44","correct",57.66017115,22.68571429,0.958333333333333,0.702380952380952,0.979166666667,0.7833333333335,0.9270833333335,187.604887286896
"428","10",NA,"sem.rel","44","disfluency",57.66017115,22.68571429,0.958333333333333,0.702380952380952,0.979166666667,0.7833333333335,0.9270833333335,187.604887286896
"429","10",955,"phono.unr","44","correct",57.66017115,22.68571429,0.958333333333333,0.702380952380952,0.979166666667,0.7833333333335,0.9270833333335,187.604887286896
"430","10",946,"phono.rel","44","correct",57.66017115,22.68571429,0.958333333333333,0.702380952380952,0.979166666667,0.7833333333335,0.9270833333335,187.604887286896
"431","10",1753,"sem.unr","60","correct",57.66017115,22.68571429,0.958333333333333,0.702380952380952,0.979166666667,0.7833333333335,0.9270833333335,187.604887286896
"432","10",1174,"sem.rel","60","correct",57.66017115,22.68571429,0.958333333333333,0.702380952380952,0.979166666667,0.7833333333335,0.9270833333335,187.604887286896
"433","10",697,"phono.unr","60","correct",57.66017115,22.68571429,0.958333333333333,0.702380952380952,0.979166666667,0.7833333333335,0.9270833333335,187.604887286896
"434","10",786,"phono.rel","60","correct",57.66017115,22.68571429,0.958333333333333,0.702380952380952,0.979166666667,0.7833333333335,0.9270833333335,187.604887286896
"435","10",875,"baseline","60","correct",57.66017115,22.68571429,0.958333333333333,0.702380952380952,0.979166666667,0.7833333333335,0.9270833333335,187.604887286896
"436","10",861,"sem.unr","11","correct",57.66017115,22.68571429,0.958333333333333,0.702380952380952,0.979166666667,0.7833333333335,0.9270833333335,187.604887286896
"437","10",704,"baseline","11","correct",57.66017115,22.68571429,0.958333333333333,0.702380952380952,0.979166666667,0.7833333333335,0.9270833333335,187.604887286896
"438","10",754,"phono.rel","11","correct",57.66017115,22.68571429,0.958333333333333,0.702380952380952,0.979166666667,0.7833333333335,0.9270833333335,187.604887286896
"439","10",718,"phono.unr","11","correct",57.66017115,22.68571429,0.958333333333333,0.702380952380952,0.979166666667,0.7833333333335,0.9270833333335,187.604887286896
"440","10",765,"sem.rel","11","correct",57.66017115,22.68571429,0.958333333333333,0.702380952380952,0.979166666667,0.7833333333335,0.9270833333335,187.604887286896
"441","10",1042,"sem.rel","27","correct",57.66017115,22.68571429,0.958333333333333,0.702380952380952,0.979166666667,0.7833333333335,0.9270833333335,187.604887286896
"442","10",946,"sem.unr","27","correct",57.66017115,22.68571429,0.958333333333333,0.702380952380952,0.979166666667,0.7833333333335,0.9270833333335,187.604887286896
"443","10",910,"baseline","27","correct",57.66017115,22.68571429,0.958333333333333,0.702380952380952,0.979166666667,0.7833333333335,0.9270833333335,187.604887286896
"444","10",1007,"phono.rel","27","correct",57.66017115,22.68571429,0.958333333333333,0.702380952380952,0.979166666667,0.7833333333335,0.9270833333335,187.604887286896
"445","10",1199,"phono.unr","27","correct",57.66017115,22.68571429,0.958333333333333,0.702380952380952,0.979166666667,0.7833333333335,0.9270833333335,187.604887286896
"446","10",1018,"sem.unr","4","correct",57.66017115,22.68571429,0.958333333333333,0.702380952380952,0.979166666667,0.7833333333335,0.9270833333335,187.604887286896
"447","10",1050,"sem.rel","4","correct",57.66017115,22.68571429,0.958333333333333,0.702380952380952,0.979166666667,0.7833333333335,0.9270833333335,187.604887286896
"448","10",902,"phono.unr","4","correct",57.66017115,22.68571429,0.958333333333333,0.702380952380952,0.979166666667,0.7833333333335,0.9270833333335,187.604887286896
"449","10",760,"phono.rel","4","correct",57.66017115,22.68571429,0.958333333333333,0.702380952380952,0.979166666667,0.7833333333335,0.9270833333335,187.604887286896
"450","10",784,"baseline","4","correct",57.66017115,22.68571429,0.958333333333333,0.702380952380952,0.979166666667,0.7833333333335,0.9270833333335,187.604887286896
"451","12",986,"phono.rel","90","correct",53.20988412,16.22835131,1,0.857142857142857,1,0.826666666667,0.71875,212.754335999438
"452","12",937,"phono.unr","90","correct",53.20988412,16.22835131,1,0.857142857142857,1,0.826666666667,0.71875,212.754335999438
"453","12",1118,"sem.rel","90","correct",53.20988412,16.22835131,1,0.857142857142857,1,0.826666666667,0.71875,212.754335999438
"454","12",845,"sem.unr","90","correct",53.20988412,16.22835131,1,0.857142857142857,1,0.826666666667,0.71875,212.754335999438
"455","12",865,"baseline","90","correct",53.20988412,16.22835131,1,0.857142857142857,1,0.826666666667,0.71875,212.754335999438
"456","12",889,"phono.unr","65","correct",53.20988412,16.22835131,1,0.857142857142857,1,0.826666666667,0.71875,212.754335999438
"457","12",838,"sem.rel","65","correct",53.20988412,16.22835131,1,0.857142857142857,1,0.826666666667,0.71875,212.754335999438
"458","12",785,"sem.unr","65","correct",53.20988412,16.22835131,1,0.857142857142857,1,0.826666666667,0.71875,212.754335999438
"459","12",719,"baseline","65","correct",53.20988412,16.22835131,1,0.857142857142857,1,0.826666666667,0.71875,212.754335999438
"460","12",763,"phono.rel","65","correct",53.20988412,16.22835131,1,0.857142857142857,1,0.826666666667,0.71875,212.754335999438
"461","12",1235,"sem.unr","58","correct",53.20988412,16.22835131,1,0.857142857142857,1,0.826666666667,0.71875,212.754335999438
"462","12",2048,"sem.rel","58","correct",53.20988412,16.22835131,1,0.857142857142857,1,0.826666666667,0.71875,212.754335999438
"463","12",979,"phono.unr","58","correct",53.20988412,16.22835131,1,0.857142857142857,1,0.826666666667,0.71875,212.754335999438
"464","12",1034,"phono.rel","58","correct",53.20988412,16.22835131,1,0.857142857142857,1,0.826666666667,0.71875,212.754335999438
"465","12",943,"baseline","58","correct",53.20988412,16.22835131,1,0.857142857142857,1,0.826666666667,0.71875,212.754335999438
"466","12",947,"phono.rel","67","correct",53.20988412,16.22835131,1,0.857142857142857,1,0.826666666667,0.71875,212.754335999438
"467","12",1112,"baseline","67","correct",53.20988412,16.22835131,1,0.857142857142857,1,0.826666666667,0.71875,212.754335999438
"468","12",931,"sem.unr","67","correct",53.20988412,16.22835131,1,0.857142857142857,1,0.826666666667,0.71875,212.754335999438
"469","12",771,"sem.rel","67","correct",53.20988412,16.22835131,1,0.857142857142857,1,0.826666666667,0.71875,212.754335999438
"470","12",889,"phono.unr","67","correct",53.20988412,16.22835131,1,0.857142857142857,1,0.826666666667,0.71875,212.754335999438
"471","12",821,"phono.rel","62","correct",53.20988412,16.22835131,1,0.857142857142857,1,0.826666666667,0.71875,212.754335999438
"472","12",864,"phono.unr","62","correct",53.20988412,16.22835131,1,0.857142857142857,1,0.826666666667,0.71875,212.754335999438
"473","12",918,"sem.rel","62","correct",53.20988412,16.22835131,1,0.857142857142857,1,0.826666666667,0.71875,212.754335999438
"474","12",1085,"sem.unr","62","correct",53.20988412,16.22835131,1,0.857142857142857,1,0.826666666667,0.71875,212.754335999438
"475","12",815,"baseline","62","correct",53.20988412,16.22835131,1,0.857142857142857,1,0.826666666667,0.71875,212.754335999438
"476","12",733,"baseline","39","correct",53.20988412,16.22835131,1,0.857142857142857,1,0.826666666667,0.71875,212.754335999438
"477","12",968,"sem.unr","39","correct",53.20988412,16.22835131,1,0.857142857142857,1,0.826666666667,0.71875,212.754335999438
"478","12",1082,"sem.rel","39","correct",53.20988412,16.22835131,1,0.857142857142857,1,0.826666666667,0.71875,212.754335999438
"479","12",762,"phono.unr","39","correct",53.20988412,16.22835131,1,0.857142857142857,1,0.826666666667,0.71875,212.754335999438
"480","12",822,"phono.rel","39","correct",53.20988412,16.22835131,1,0.857142857142857,1,0.826666666667,0.71875,212.754335999438
"481","12",778,"sem.rel","13","correct",53.20988412,16.22835131,1,0.857142857142857,1,0.826666666667,0.71875,212.754335999438
"482","12",808,"phono.unr","13","correct",53.20988412,16.22835131,1,0.857142857142857,1,0.826666666667,0.71875,212.754335999438
"483","12",736,"phono.rel","13","correct",53.20988412,16.22835131,1,0.857142857142857,1,0.826666666667,0.71875,212.754335999438
"484","12",551,"baseline","13","correct",53.20988412,16.22835131,1,0.857142857142857,1,0.826666666667,0.71875,212.754335999438
"485","12",841,"sem.unr","13","correct",53.20988412,16.22835131,1,0.857142857142857,1,0.826666666667,0.71875,212.754335999438
"486","12",1223,"phono.unr","79","correct",53.20988412,16.22835131,1,0.857142857142857,1,0.826666666667,0.71875,212.754335999438
"487","12",799,"sem.rel","79","correct",53.20988412,16.22835131,1,0.857142857142857,1,0.826666666667,0.71875,212.754335999438
"488","12",777,"sem.unr","79","correct",53.20988412,16.22835131,1,0.857142857142857,1,0.826666666667,0.71875,212.754335999438
"489","12",625,"baseline","79","correct",53.20988412,16.22835131,1,0.857142857142857,1,0.826666666667,0.71875,212.754335999438
"490","12",879,"phono.rel","79","correct",53.20988412,16.22835131,1,0.857142857142857,1,0.826666666667,0.71875,212.754335999438
"491","12",821,"sem.unr","41","correct",53.20988412,16.22835131,1,0.857142857142857,1,0.826666666667,0.71875,212.754335999438
"492","12",764,"baseline","41","correct",53.20988412,16.22835131,1,0.857142857142857,1,0.826666666667,0.71875,212.754335999438
"493","12",864,"phono.rel","41","correct",53.20988412,16.22835131,1,0.857142857142857,1,0.826666666667,0.71875,212.754335999438
"494","12",770,"phono.unr","41","correct",53.20988412,16.22835131,1,0.857142857142857,1,0.826666666667,0.71875,212.754335999438
"495","12",803,"sem.rel","41","correct",53.20988412,16.22835131,1,0.857142857142857,1,0.826666666667,0.71875,212.754335999438
"496","12",1534,"sem.rel","36","correct",53.20988412,16.22835131,1,0.857142857142857,1,0.826666666667,0.71875,212.754335999438
"497","12",941,"phono.unr","36","correct",53.20988412,16.22835131,1,0.857142857142857,1,0.826666666667,0.71875,212.754335999438
"498","12",1337,"phono.rel","36","correct",53.20988412,16.22835131,1,0.857142857142857,1,0.826666666667,0.71875,212.754335999438
"499","12",761,"baseline","36","correct",53.20988412,16.22835131,1,0.857142857142857,1,0.826666666667,0.71875,212.754335999438
"500","12",861,"sem.unr","36","correct",53.20988412,16.22835131,1,0.857142857142857,1,0.826666666667,0.71875,212.754335999438
"501","12",1301,"phono.unr","49","correct",53.20988412,16.22835131,1,0.857142857142857,1,0.826666666667,0.71875,212.754335999438
"502","12",878,"sem.rel","49","correct",53.20988412,16.22835131,1,0.857142857142857,1,0.826666666667,0.71875,212.754335999438
"503","12",873,"sem.unr","49","correct",53.20988412,16.22835131,1,0.857142857142857,1,0.826666666667,0.71875,212.754335999438
"504","12",696,"baseline","49","correct",53.20988412,16.22835131,1,0.857142857142857,1,0.826666666667,0.71875,212.754335999438
"505","12",814,"phono.rel","49","correct",53.20988412,16.22835131,1,0.857142857142857,1,0.826666666667,0.71875,212.754335999438
"506","12",780,"baseline","87","correct",53.20988412,16.22835131,1,0.857142857142857,1,0.826666666667,0.71875,212.754335999438
"507","12",759,"phono.rel","87","correct",53.20988412,16.22835131,1,0.857142857142857,1,0.826666666667,0.71875,212.754335999438
"508","12",1475,"phono.unr","87","correct",53.20988412,16.22835131,1,0.857142857142857,1,0.826666666667,0.71875,212.754335999438
"509","12",877,"sem.rel","87","correct",53.20988412,16.22835131,1,0.857142857142857,1,0.826666666667,0.71875,212.754335999438
"510","12",1651,"sem.unr","87","correct",53.20988412,16.22835131,1,0.857142857142857,1,0.826666666667,0.71875,212.754335999438
"511","12",891,"phono.rel","57","correct",53.20988412,16.22835131,1,0.857142857142857,1,0.826666666667,0.71875,212.754335999438
"512","12",807,"phono.unr","57","correct",53.20988412,16.22835131,1,0.857142857142857,1,0.826666666667,0.71875,212.754335999438
"513","12",1083,"sem.rel","57","correct",53.20988412,16.22835131,1,0.857142857142857,1,0.826666666667,0.71875,212.754335999438
"514","12",783,"sem.unr","57","correct",53.20988412,16.22835131,1,0.857142857142857,1,0.826666666667,0.71875,212.754335999438
"515","12",649,"baseline","57","correct",53.20988412,16.22835131,1,0.857142857142857,1,0.826666666667,0.71875,212.754335999438
"516","12",796,"phono.unr","69","correct",53.20988412,16.22835131,1,0.857142857142857,1,0.826666666667,0.71875,212.754335999438
"517","12",891,"phono.rel","69","correct",53.20988412,16.22835131,1,0.857142857142857,1,0.826666666667,0.71875,212.754335999438
"518","12",778,"baseline","69","correct",53.20988412,16.22835131,1,0.857142857142857,1,0.826666666667,0.71875,212.754335999438
"519","12",716,"sem.unr","69","correct",53.20988412,16.22835131,1,0.857142857142857,1,0.826666666667,0.71875,212.754335999438
"520","12",781,"sem.rel","69","correct",53.20988412,16.22835131,1,0.857142857142857,1,0.826666666667,0.71875,212.754335999438
"521","12",929,"phono.unr","10","correct",53.20988412,16.22835131,1,0.857142857142857,1,0.826666666667,0.71875,212.754335999438
"522","12",967,"phono.rel","10","correct",53.20988412,16.22835131,1,0.857142857142857,1,0.826666666667,0.71875,212.754335999438
"523","12",722,"baseline","10","correct",53.20988412,16.22835131,1,0.857142857142857,1,0.826666666667,0.71875,212.754335999438
"524","12",840,"sem.unr","10","correct",53.20988412,16.22835131,1,0.857142857142857,1,0.826666666667,0.71875,212.754335999438
"525","12",772,"sem.rel","10","correct",53.20988412,16.22835131,1,0.857142857142857,1,0.826666666667,0.71875,212.754335999438
"526","12",1093,"sem.unr","8","correct",53.20988412,16.22835131,1,0.857142857142857,1,0.826666666667,0.71875,212.754335999438
"527","12",811,"baseline","8","correct",53.20988412,16.22835131,1,0.857142857142857,1,0.826666666667,0.71875,212.754335999438
"528","12",855,"phono.rel","8","correct",53.20988412,16.22835131,1,0.857142857142857,1,0.826666666667,0.71875,212.754335999438
"529","12",864,"phono.unr","8","correct",53.20988412,16.22835131,1,0.857142857142857,1,0.826666666667,0.71875,212.754335999438
"530","12",756,"sem.rel","8","correct",53.20988412,16.22835131,1,0.857142857142857,1,0.826666666667,0.71875,212.754335999438
"531","12",883,"phono.rel","32","correct",53.20988412,16.22835131,1,0.857142857142857,1,0.826666666667,0.71875,212.754335999438
"532","12",905,"phono.unr","32","correct",53.20988412,16.22835131,1,0.857142857142857,1,0.826666666667,0.71875,212.754335999438
"533","12",1031,"sem.rel","32","correct",53.20988412,16.22835131,1,0.857142857142857,1,0.826666666667,0.71875,212.754335999438
"534","12",831,"sem.unr","32","correct",53.20988412,16.22835131,1,0.857142857142857,1,0.826666666667,0.71875,212.754335999438
"535","12",1289,"baseline","32","correct",53.20988412,16.22835131,1,0.857142857142857,1,0.826666666667,0.71875,212.754335999438
"536","12",1130,"sem.rel","42","correct",53.20988412,16.22835131,1,0.857142857142857,1,0.826666666667,0.71875,212.754335999438
"537","12",935,"sem.unr","42","correct",53.20988412,16.22835131,1,0.857142857142857,1,0.826666666667,0.71875,212.754335999438
"538","12",776,"baseline","42","correct",53.20988412,16.22835131,1,0.857142857142857,1,0.826666666667,0.71875,212.754335999438
"539","12",836,"phono.rel","42","correct",53.20988412,16.22835131,1,0.857142857142857,1,0.826666666667,0.71875,212.754335999438
"540","12",884,"phono.unr","42","correct",53.20988412,16.22835131,1,0.857142857142857,1,0.826666666667,0.71875,212.754335999438
"541","12",885,"sem.unr","14","correct",53.20988412,16.22835131,1,0.857142857142857,1,0.826666666667,0.71875,212.754335999438
"542","12",1274,"sem.rel","14","correct",53.20988412,16.22835131,1,0.857142857142857,1,0.826666666667,0.71875,212.754335999438
"543","12",763,"phono.unr","14","correct",53.20988412,16.22835131,1,0.857142857142857,1,0.826666666667,0.71875,212.754335999438
"544","12",831,"phono.rel","14","correct",53.20988412,16.22835131,1,0.857142857142857,1,0.826666666667,0.71875,212.754335999438
"545","12",820,"baseline","14","correct",53.20988412,16.22835131,1,0.857142857142857,1,0.826666666667,0.71875,212.754335999438
"546","12",984,"sem.rel","46","correct",53.20988412,16.22835131,1,0.857142857142857,1,0.826666666667,0.71875,212.754335999438
"547","12",1064,"phono.unr","46","correct",53.20988412,16.22835131,1,0.857142857142857,1,0.826666666667,0.71875,212.754335999438
"548","12",1014,"phono.rel","46","correct",53.20988412,16.22835131,1,0.857142857142857,1,0.826666666667,0.71875,212.754335999438
"549","12",730,"baseline","46","correct",53.20988412,16.22835131,1,0.857142857142857,1,0.826666666667,0.71875,212.754335999438
"550","12",828,"sem.unr","46","correct",53.20988412,16.22835131,1,0.857142857142857,1,0.826666666667,0.71875,212.754335999438
"551","12",897,"phono.unr","24","correct",53.20988412,16.22835131,1,0.857142857142857,1,0.826666666667,0.71875,212.754335999438
"552","12",843,"sem.rel","24","correct",53.20988412,16.22835131,1,0.857142857142857,1,0.826666666667,0.71875,212.754335999438
"553","12",888,"sem.unr","24","correct",53.20988412,16.22835131,1,0.857142857142857,1,0.826666666667,0.71875,212.754335999438
"554","12",805,"baseline","24","correct",53.20988412,16.22835131,1,0.857142857142857,1,0.826666666667,0.71875,212.754335999438
"555","12",812,"phono.rel","24","correct",53.20988412,16.22835131,1,0.857142857142857,1,0.826666666667,0.71875,212.754335999438
"556","12",921,"sem.rel","31","correct",53.20988412,16.22835131,1,0.857142857142857,1,0.826666666667,0.71875,212.754335999438
"557","12",806,"phono.unr","31","correct",53.20988412,16.22835131,1,0.857142857142857,1,0.826666666667,0.71875,212.754335999438
"558","12",935,"phono.rel","31","correct",53.20988412,16.22835131,1,0.857142857142857,1,0.826666666667,0.71875,212.754335999438
"559","12",801,"baseline","31","correct",53.20988412,16.22835131,1,0.857142857142857,1,0.826666666667,0.71875,212.754335999438
"560","12",735,"sem.unr","31","correct",53.20988412,16.22835131,1,0.857142857142857,1,0.826666666667,0.71875,212.754335999438
"561","12",955,"sem.rel","1","correct",53.20988412,16.22835131,1,0.857142857142857,1,0.826666666667,0.71875,212.754335999438
"562","12",918,"sem.unr","1","correct",53.20988412,16.22835131,1,0.857142857142857,1,0.826666666667,0.71875,212.754335999438
"563","12",790,"baseline","1","correct",53.20988412,16.22835131,1,0.857142857142857,1,0.826666666667,0.71875,212.754335999438
"564","12",811,"phono.rel","1","correct",53.20988412,16.22835131,1,0.857142857142857,1,0.826666666667,0.71875,212.754335999438
"565","12",1257,"phono.unr","1","correct",53.20988412,16.22835131,1,0.857142857142857,1,0.826666666667,0.71875,212.754335999438
"566","12",858,"baseline","9","correct",53.20988412,16.22835131,1,0.857142857142857,1,0.826666666667,0.71875,212.754335999438
"567","12",888,"sem.unr","9","correct",53.20988412,16.22835131,1,0.857142857142857,1,0.826666666667,0.71875,212.754335999438
"568","12",1177,"sem.rel","9","correct",53.20988412,16.22835131,1,0.857142857142857,1,0.826666666667,0.71875,212.754335999438
"569","12",1157,"phono.unr","9","correct",53.20988412,16.22835131,1,0.857142857142857,1,0.826666666667,0.71875,212.754335999438
"570","12",1296,"phono.rel","9","correct",53.20988412,16.22835131,1,0.857142857142857,1,0.826666666667,0.71875,212.754335999438
"571","12",771,"phono.unr","88","correct",53.20988412,16.22835131,1,0.857142857142857,1,0.826666666667,0.71875,212.754335999438
"572","12",881,"phono.rel","88","correct",53.20988412,16.22835131,1,0.857142857142857,1,0.826666666667,0.71875,212.754335999438
"573","12",663,"baseline","88","correct",53.20988412,16.22835131,1,0.857142857142857,1,0.826666666667,0.71875,212.754335999438
"574","12",790,"sem.unr","88","correct",53.20988412,16.22835131,1,0.857142857142857,1,0.826666666667,0.71875,212.754335999438
"575","12",953,"sem.rel","88","correct",53.20988412,16.22835131,1,0.857142857142857,1,0.826666666667,0.71875,212.754335999438
"576","12",900,"sem.unr","48","correct",53.20988412,16.22835131,1,0.857142857142857,1,0.826666666667,0.71875,212.754335999438
"577","12",966,"sem.rel","48","correct",53.20988412,16.22835131,1,0.857142857142857,1,0.826666666667,0.71875,212.754335999438
"578","12",714,"phono.unr","48","correct",53.20988412,16.22835131,1,0.857142857142857,1,0.826666666667,0.71875,212.754335999438
"579","12",669,"phono.rel","48","correct",53.20988412,16.22835131,1,0.857142857142857,1,0.826666666667,0.71875,212.754335999438
"580","12",704,"baseline","48","correct",53.20988412,16.22835131,1,0.857142857142857,1,0.826666666667,0.71875,212.754335999438
"581","12",1177,"phono.rel","77","correct",53.20988412,16.22835131,1,0.857142857142857,1,0.826666666667,0.71875,212.754335999438
"582","12",821,"phono.unr","77","correct",53.20988412,16.22835131,1,0.857142857142857,1,0.826666666667,0.71875,212.754335999438
"583","12",1168,"sem.rel","77","correct",53.20988412,16.22835131,1,0.857142857142857,1,0.826666666667,0.71875,212.754335999438
"584","12",820,"sem.unr","77","correct",53.20988412,16.22835131,1,0.857142857142857,1,0.826666666667,0.71875,212.754335999438
"585","12",618,"baseline","77","correct",53.20988412,16.22835131,1,0.857142857142857,1,0.826666666667,0.71875,212.754335999438
"586","12",874,"phono.rel","59","correct",53.20988412,16.22835131,1,0.857142857142857,1,0.826666666667,0.71875,212.754335999438
"587","12",732,"baseline","59","correct",53.20988412,16.22835131,1,0.857142857142857,1,0.826666666667,0.71875,212.754335999438
"588","12",781,"sem.unr","59","correct",53.20988412,16.22835131,1,0.857142857142857,1,0.826666666667,0.71875,212.754335999438
"589","12",828,"sem.rel","59","correct",53.20988412,16.22835131,1,0.857142857142857,1,0.826666666667,0.71875,212.754335999438
"590","12",768,"phono.unr","59","correct",53.20988412,16.22835131,1,0.857142857142857,1,0.826666666667,0.71875,212.754335999438
"591","12",966,"baseline","66","correct",53.20988412,16.22835131,1,0.857142857142857,1,0.826666666667,0.71875,212.754335999438
"592","12",743,"phono.rel","66","correct",53.20988412,16.22835131,1,0.857142857142857,1,0.826666666667,0.71875,212.754335999438
"593","12",783,"phono.unr","66","correct",53.20988412,16.22835131,1,0.857142857142857,1,0.826666666667,0.71875,212.754335999438
"594","12",847,"sem.rel","66","correct",53.20988412,16.22835131,1,0.857142857142857,1,0.826666666667,0.71875,212.754335999438
"595","12",745,"sem.unr","66","correct",53.20988412,16.22835131,1,0.857142857142857,1,0.826666666667,0.71875,212.754335999438
"596","12",917,"phono.unr","72","correct",53.20988412,16.22835131,1,0.857142857142857,1,0.826666666667,0.71875,212.754335999438
"597","12",881,"sem.rel","72","correct",53.20988412,16.22835131,1,0.857142857142857,1,0.826666666667,0.71875,212.754335999438
"598","12",1369,"sem.unr","72","correct",53.20988412,16.22835131,1,0.857142857142857,1,0.826666666667,0.71875,212.754335999438
"599","12",601,"baseline","72","correct",53.20988412,16.22835131,1,0.857142857142857,1,0.826666666667,0.71875,212.754335999438
"600","12",744,"phono.rel","72","correct",53.20988412,16.22835131,1,0.857142857142857,1,0.826666666667,0.71875,212.754335999438
"601","12",888,"sem.unr","86","correct",53.20988412,16.22835131,1,0.857142857142857,1,0.826666666667,0.71875,212.754335999438
"602","12",825,"sem.rel","86","correct",53.20988412,16.22835131,1,0.857142857142857,1,0.826666666667,0.71875,212.754335999438
"603","12",1419,"phono.unr","86","correct",53.20988412,16.22835131,1,0.857142857142857,1,0.826666666667,0.71875,212.754335999438
"604","12",716,"phono.rel","86","correct",53.20988412,16.22835131,1,0.857142857142857,1,0.826666666667,0.71875,212.754335999438
"605","12",775,"baseline","86","correct",53.20988412,16.22835131,1,0.857142857142857,1,0.826666666667,0.71875,212.754335999438
"606","12",726,"sem.rel","22","correct",53.20988412,16.22835131,1,0.857142857142857,1,0.826666666667,0.71875,212.754335999438
"607","12",865,"sem.unr","22","correct",53.20988412,16.22835131,1,0.857142857142857,1,0.826666666667,0.71875,212.754335999438
"608","12",675,"baseline","22","correct",53.20988412,16.22835131,1,0.857142857142857,1,0.826666666667,0.71875,212.754335999438
"609","12",720,"phono.rel","22","correct",53.20988412,16.22835131,1,0.857142857142857,1,0.826666666667,0.71875,212.754335999438
"610","12",792,"phono.unr","22","correct",53.20988412,16.22835131,1,0.857142857142857,1,0.826666666667,0.71875,212.754335999438
"611","12",893,"phono.rel","52","correct",53.20988412,16.22835131,1,0.857142857142857,1,0.826666666667,0.71875,212.754335999438
"612","12",841,"baseline","52","correct",53.20988412,16.22835131,1,0.857142857142857,1,0.826666666667,0.71875,212.754335999438
"613","12",1024,"sem.unr","52","correct",53.20988412,16.22835131,1,0.857142857142857,1,0.826666666667,0.71875,212.754335999438
"614","12",837,"sem.rel","52","correct",53.20988412,16.22835131,1,0.857142857142857,1,0.826666666667,0.71875,212.754335999438
"615","12",996,"phono.unr","52","correct",53.20988412,16.22835131,1,0.857142857142857,1,0.826666666667,0.71875,212.754335999438
"616","12",801,"sem.unr","54","correct",53.20988412,16.22835131,1,0.857142857142857,1,0.826666666667,0.71875,212.754335999438
"617","12",738,"baseline","54","correct",53.20988412,16.22835131,1,0.857142857142857,1,0.826666666667,0.71875,212.754335999438
"618","12",1199,"phono.rel","54","correct",53.20988412,16.22835131,1,0.857142857142857,1,0.826666666667,0.71875,212.754335999438
"619","12",852,"phono.unr","54","correct",53.20988412,16.22835131,1,0.857142857142857,1,0.826666666667,0.71875,212.754335999438
"620","12",824,"sem.rel","54","correct",53.20988412,16.22835131,1,0.857142857142857,1,0.826666666667,0.71875,212.754335999438
"621","12",748,"phono.unr","74","correct",53.20988412,16.22835131,1,0.857142857142857,1,0.826666666667,0.71875,212.754335999438
"622","12",764,"sem.rel","74","correct",53.20988412,16.22835131,1,0.857142857142857,1,0.826666666667,0.71875,212.754335999438
"623","12",713,"sem.unr","74","correct",53.20988412,16.22835131,1,0.857142857142857,1,0.826666666667,0.71875,212.754335999438
"624","12",606,"baseline","74","correct",53.20988412,16.22835131,1,0.857142857142857,1,0.826666666667,0.71875,212.754335999438
"625","12",598,"phono.rel","74","correct",53.20988412,16.22835131,1,0.857142857142857,1,0.826666666667,0.71875,212.754335999438
"626","12",1252,"sem.unr","33","correct",53.20988412,16.22835131,1,0.857142857142857,1,0.826666666667,0.71875,212.754335999438
"627","12",1083,"baseline","33","correct",53.20988412,16.22835131,1,0.857142857142857,1,0.826666666667,0.71875,212.754335999438
"628","12",798,"phono.rel","33","correct",53.20988412,16.22835131,1,0.857142857142857,1,0.826666666667,0.71875,212.754335999438
"629","12",923,"phono.unr","33","correct",53.20988412,16.22835131,1,0.857142857142857,1,0.826666666667,0.71875,212.754335999438
"630","12",785,"sem.rel","33","correct",53.20988412,16.22835131,1,0.857142857142857,1,0.826666666667,0.71875,212.754335999438
"631","12",791,"sem.unr","78","correct",53.20988412,16.22835131,1,0.857142857142857,1,0.826666666667,0.71875,212.754335999438
"632","12",907,"sem.rel","78","correct",53.20988412,16.22835131,1,0.857142857142857,1,0.826666666667,0.71875,212.754335999438
"633","12",775,"phono.unr","78","correct",53.20988412,16.22835131,1,0.857142857142857,1,0.826666666667,0.71875,212.754335999438
"634","12",628,"phono.rel","78","correct",53.20988412,16.22835131,1,0.857142857142857,1,0.826666666667,0.71875,212.754335999438
"635","12",655,"baseline","78","correct",53.20988412,16.22835131,1,0.857142857142857,1,0.826666666667,0.71875,212.754335999438
"636","12",764,"sem.unr","40","correct",53.20988412,16.22835131,1,0.857142857142857,1,0.826666666667,0.71875,212.754335999438
"637","12",871,"sem.rel","40","correct",53.20988412,16.22835131,1,0.857142857142857,1,0.826666666667,0.71875,212.754335999438
"638","12",831,"phono.unr","40","correct",53.20988412,16.22835131,1,0.857142857142857,1,0.826666666667,0.71875,212.754335999438
"639","12",617,"phono.rel","40","correct",53.20988412,16.22835131,1,0.857142857142857,1,0.826666666667,0.71875,212.754335999438
"640","12",748,"baseline","40","correct",53.20988412,16.22835131,1,0.857142857142857,1,0.826666666667,0.71875,212.754335999438
"641","12",1026,"phono.rel","18","correct",53.20988412,16.22835131,1,0.857142857142857,1,0.826666666667,0.71875,212.754335999438
"642","12",861,"baseline","18","correct",53.20988412,16.22835131,1,0.857142857142857,1,0.826666666667,0.71875,212.754335999438
"643","12",934,"sem.unr","18","correct",53.20988412,16.22835131,1,0.857142857142857,1,0.826666666667,0.71875,212.754335999438
"644","12",960,"sem.rel","18","correct",53.20988412,16.22835131,1,0.857142857142857,1,0.826666666667,0.71875,212.754335999438
"645","12",1138,"phono.unr","18","correct",53.20988412,16.22835131,1,0.857142857142857,1,0.826666666667,0.71875,212.754335999438
"646","12",863,"sem.rel","80","correct",53.20988412,16.22835131,1,0.857142857142857,1,0.826666666667,0.71875,212.754335999438
"647","12",1019,"sem.unr","80","correct",53.20988412,16.22835131,1,0.857142857142857,1,0.826666666667,0.71875,212.754335999438
"648","12",693,"baseline","80","correct",53.20988412,16.22835131,1,0.857142857142857,1,0.826666666667,0.71875,212.754335999438
"649","12",776,"phono.rel","80","correct",53.20988412,16.22835131,1,0.857142857142857,1,0.826666666667,0.71875,212.754335999438
"650","12",784,"phono.unr","80","correct",53.20988412,16.22835131,1,0.857142857142857,1,0.826666666667,0.71875,212.754335999438
"651","12",820,"baseline","64","correct",53.20988412,16.22835131,1,0.857142857142857,1,0.826666666667,0.71875,212.754335999438
